Time,PowerKeyState,FuncKeyState ,UpKeyState ,DownKeyState ,DeviceError ,Battery ,DeviceMs ,BackIncl ,HipAngle_L ,HipAngle_R ,HipSpeed_L ,HipSpeed_R ,HipTor_L ,HipTor_R ,Voltage ,Current ,AccX ,AccY ,AccZ ,GyroX ,GyroY ,GyroZ
0.00048240000614896417,0,0,0,0,1,64,8664450,3.270791530609131,1.4099839925765991,0.8996798396110535,1.8243011236190796,-1.538365125656128,-0.0008568647899664938,0.005468168295919895,26.44,0.14,0.0,0.96,0.0,0.0,0.0,0.0
0.02292200000374578,0,0,0,0,1,64,8664472,3.273883819580078,1.419954776763916,0.8684889674186707,1.5449308156967163,-1.5213207006454468,0.0034023646730929613,0.007711959537118673,26.42,0.0,0.0,0.97,0.0,0.0,0.0,0.0
0.05969960000948049,0,0,0,0,1,64,8664509,3.2735023498535156,1.4248123168945312,0.8291168212890625,1.0914958715438843,-1.3815908432006836,0.004283141810446978,0.0035670949146151543,26.42,0.0,0.0,0.96,0.0,0.0,0.0,0.21
0.0907831999938935,0,0,0,0,1,64,8664540,3.265078067779541,1.4243011474609375,0.8061068654060364,0.7794903516769409,-1.2079826593399048,0.007308032363653183,-0.004671821370720863,26.44,0.06,0.0,0.9,0.03,0.0,0.0,0.53
0.12193210000987165,0,0,0,0,1,64,8664571,3.2486040592193604,1.4227670431137085,0.7900002598762512,0.5504014492034912,-1.0168994665145874,0.0074106124229729176,-0.002148883882910013,26.400000000000002,0.0,0.0,0.86,0.05,0.03,0.05,0.65
0.15289779999875464,0,0,0,0,1,64,8664602,3.2308549880981445,1.4140745401382446,0.7774727940559387,0.32829102873802185,-0.8438034057617188,0.005664490163326263,-0.0033969806972891092,26.44,0.0,0.0,0.8200000000000001,0.03,0.18,0.1,0.5
0.18337220000103116,0,0,0,0,1,64,8664633,3.22048020362854,1.4023140668869019,0.7605988383293152,0.12689949572086334,-0.7487183213233948,-0.003308316459879279,-0.0062933508306741714,26.42,0.01,0.09,0.85,0.0,0.25,0.1,0.15
0.21466070000315085,0,0,0,0,1,64,8664664,3.2196550369262695,1.39873468875885,0.7304306030273438,0.05043438822031021,-0.7923075556755066,0.010428857058286667,0.001347576268017292,26.44,0.09,0.0,1.07,0.0,0.15,0.02,0.0
0.2456264999927953,0,0,0,0,1,64,8664695,3.2281174659729004,1.39873468875885,0.690546989440918,0.038444314152002335,-0.9290542602539062,0.006556082516908646,0.0032822182402014732,26.400000000000002,0.09,0.0,1.11,0.05,0.06,0.0,0.0
0.2762560000119265,0,0,0,0,1,64,8664726,3.2418923377990723,1.3979676961898804,0.6552655100822449,0.023061294108629227,-0.9999643564224243,0.0070706745609641075,-0.006802280433475971,26.44,0.0,0.0,1.1500000000000001,0.11,0.05,0.0,0.0
0.30639730000984855,0,0,0,0,1,64,8664756,3.2494394779205322,1.3946441411972046,0.6368576884269714,-0.0028542806394398212,-0.9166972637176514,-0.00842389464378357,0.006902409251779318,26.400000000000002,0.09,0.0,1.24,0.09,0.09,0.0,0.03
0.3365038000047207,0,0,0,0,1,64,8664786,3.249397039413452,1.3731683492660522,0.6376247406005859,-0.1696665734052658,-0.673861026763916,0.00014666240895166993,0.008022565394639969,26.42,0.0,0.07,1.04,0.0,0.09,0.0,0.0
0.3676615000003949,0,0,0,0,1,64,8664817,3.2594990730285645,1.3366085290908813,0.6486184000968933,-0.44705286622047424,-0.3922220468521118,0.003858508775010705,0.01162959635257721,26.44,0.01,0.0,0.87,0.0,0.23,0.0,0.0
0.39820190001046285,0,0,0,0,1,64,8664848,3.2763383388519287,1.2995373010635376,0.6757186055183411,-0.657433032989502,-0.05838214233517647,-0.005135486368089914,0.0020720285829156637,26.42,0.0,0.15,0.98,0.0,0.13,0.0,0.0
0.42955269999220036,0,0,0,0,1,64,8664879,3.289621114730835,1.2555631399154663,0.7357994914054871,-0.8614645600318909,0.45746421813964844,-0.0028600289952009916,0.006351611576974392,26.42,0.09,0.24,1.11,0.0,0.0,0.02,0.0
0.46061519999057055,0,0,0,0,1,64,8664910,3.299910545349121,1.2067314386367798,0.8268156051635742,-1.05890691280365,1.124280333518982,-0.002126428997144103,0.009357589296996593,26.42,0.0,0.14,1.17,0.04,0.0,0.01,0.0
0.49075950001133606,0,0,0,0,1,64,8664940,3.3028147220611572,1.1719611883163452,0.9293368458747864,-1.104537844657898,1.739689826965332,-0.006443337071686983,0.002786260563880205,26.42,0.01,0.1,1.24,0.07,0.0,0.0,0.0
0.5222080000094138,0,0,0,0,1,64,8664972,3.298307180404663,1.1540647745132446,1.0477088689804077,-0.9622983932495117,2.3005025386810303,-0.003772725583985448,0.0029695897828787565,26.44,0.2,0.0,1.21,0.0,0.15,0.03,0.14
0.5471723999944516,0,0,0,0,1,64,8664997,3.290982723236084,1.1440938711166382,1.1394920349121094,-0.8249679803848267,2.6156351566314697,-0.013386440463364124,0.004651525989174843,26.42,0.0,0.03,1.1400000000000001,0.0,0.27,0.19,0.27
0.5844712000107393,0,0,0,0,1,64,8665034,3.2775235176086426,1.1172491312026978,1.2724370956420898,-0.7736912369728088,2.9347503185272217,-0.012257987633347511,-0.002078576013445854,26.42,0.01,0.07,0.97,0.0,0.27,0.2,0.29
0.6158729000017047,0,0,0,0,1,64,8665065,3.2683911323547363,1.083245873451233,1.3683109283447266,-0.8567162752151489,2.995800018310547,0.003694400656968355,0.002053163480013609,26.400000000000002,0.0,0.06,0.87,0.0,0.18,0.18,0.22
0.6468712000059895,0,0,0,0,1,64,8665096,3.260986089706421,1.0428510904312134,1.4401521682739258,-0.9752764701843262,2.8216488361358643,0.006957475561648607,0.002189281163737178,26.42,0.03,0.03,0.84,0.0,0.13,0.16,0.09
0.6790400999889243,0,0,0,0,1,64,8665128,3.257211923599243,0.9978544116020203,1.4907736778259277,-1.097355604171753,2.4758079051971436,-0.00037742877611890435,-0.0062874979339540005,26.42,0.09,0.04,0.89,0.0,0.1,0.21,0.04
0.7033266999933403,0,0,0,0,1,64,8665153,3.255574941635132,0.9607831835746765,1.5155730247497559,-1.183406114578247,2.1420090198516846,0.0008427106658928096,-0.0009217546321451664,26.400000000000002,0.0,0.02,0.9,0.0,0.12,0.23,0.05
0.7404665999929421,0,0,0,0,1,64,8665190,3.253037452697754,0.9070938229560852,1.5301460027694702,-1.2705321311950684,1.5898483991622925,-0.0005991120706312358,0.012550442479550838,26.42,0.19,0.0,0.92,0.0,0.08,0.21,0.1
0.7716683000035118,0,0,0,0,1,64,8665221,3.2495803833007812,0.8679773211479187,1.5301460027694702,-1.2740424871444702,1.1440014839172363,-0.004148758016526699,0.005457783117890358,26.42,0.06,0.0,0.91,0.0,0.01,0.16,0.28
0.8020653999992646,0,0,0,0,1,64,8665251,3.239980936050415,0.8395986557006836,1.529123306274414,-1.195847511291504,0.8239076733589172,-0.0030588116496801376,0.012335101142525673,26.42,0.08,0.0,0.92,0.0,0.0,0.07,0.5
0.8334265000012238,0,0,0,0,1,64,8665283,3.2250821590423584,0.8176116943359375,1.5173627138137817,-1.0520811080932617,0.49764159321784973,-0.002659171586856246,0.013191204518079758,26.42,0.0,0.0,0.89,0.0,0.0,0.06,0.55
0.8582955000165384,0,0,0,0,1,64,8665308,3.2132272720336914,0.802271842956543,1.4999775886535645,-0.9476831555366516,0.23085220158100128,-0.0018653178121894598,0.008500335738062859,26.42,0.19,0.02,0.81,0.0,0.0,0.08,0.47000000000000003
0.8961838000104763,0,0,0,0,1,64,8665346,3.2015633583068848,0.7782394289970398,1.4659744501113892,-0.839688241481781,-0.13890722393989563,-0.0035937419161200523,0.0072878445498645306,26.42,0.0,0.01,0.87,0.0,0.0,0.06,0.15
0.9267458000103943,0,0,0,0,1,64,8665376,3.19921875,0.7524173855781555,1.4462881088256836,-0.8328576683998108,-0.28997841477394104,0.000199771806364879,0.0017888556467369199,26.44,0.01,0.03,0.99,0.0,0.0,0.06,0.04
0.957054500002414,0,0,0,0,1,64,8665406,3.2002673149108887,0.716113269329071,1.4419418573379517,-0.9235081672668457,-0.26603350043296814,-0.007273755967617035,0.014895187690854073,26.42,0.09,0.0,1.03,0.0,0.0,0.08,0.0
0.9886516999977175,0,0,0,0,1,64,8665438,3.2058193683624268,0.6711165308952332,1.4450098276138306,-1.0610910654067993,-0.1589253842830658,-0.0012324138078838587,0.011261384934186935,26.44,0.11,0.0,1.07,0.0,0.0,0.17,0.0
1.01313810001011,0,0,0,0,1,64,8665463,3.210813045501709,0.6355794072151184,1.4465440511703491,-1.1475998163223267,-0.10135778784751892,0.0010419748723506927,-0.008303244598209858,26.42,0.0,0.0,1.1,0.0,0.0,0.27,0.0
1.0509405999910086,0,0,0,0,1,64,8665500,3.216627597808838,0.5908381342887878,1.4450098276138306,-1.1776633262634277,-0.07819921523332596,0.0018019831040874124,-0.028031399473547935,26.42,0.06,0.0,1.25,0.0,0.02,0.27,0.06
1.0810780999890994,0,0,0,0,1,64,8665530,3.2156360149383545,0.572430431842804,1.4404081106185913,-1.0472019910812378,-0.08553194999694824,0.0010803507175296545,-0.019495626911520958,26.44,0.0,0.02,0.97,0.07,0.12,0.17,0.04
1.1119863000058103,0,0,0,0,1,64,8665561,3.2202677726745605,0.5780550837516785,1.4214887619018555,-0.7204586267471313,-0.22112445533275604,0.003380829468369484,-0.007267336826771498,26.42,0.09,0.14,0.81,0.05,0.12,0.04,0.0
1.1428626000124495,0,0,0,0,1,64,8665592,3.2371163368225098,0.5956957936286926,1.3966894149780273,-0.36684250831604004,-0.37742429971694946,-0.0062886071391403675,-0.002383207203820348,26.400000000000002,0.0,0.17,0.92,0.16,0.35000000000000003,0.0,0.0
1.1748319999896921,0,0,0,0,1,64,8665624,3.2606167793273926,0.6358349919319153,1.3642202615737915,0.07024434953927994,-0.5504849553108215,-0.009755273349583149,0.005296261981129646,26.42,0.14,0.14,0.93,0.07,0.4,0.0,0.0
1.1991789999883622,0,0,0,0,1,64,8665649,3.2762646675109863,0.6895243525505066,1.330984115600586,0.5250599384307861,-0.7221623063087463,0.00045993944513611495,0.0038073749747127295,26.44,0.14,0.18,1.1400000000000001,0.0,0.3,0.0,0.0
1.2368895999970846,0,0,0,0,1,64,8665686,3.2912211418151855,0.796391487121582,1.2831748723983765,1.272417426109314,-0.9180309772491455,-0.002734410110861063,0.007415842730551958,26.400000000000002,0.04,0.15,1.3,0.0,0.17,0.0,0.0
1.268072500010021,0,0,0,0,1,64,8665717,3.2933692932128906,0.8989126086235046,1.2550519704818726,1.8357352018356323,-0.9223769903182983,0.0011775052407756448,0.002445162506774068,26.44,0.0,0.07,1.1500000000000001,0.0,0.0,0.0,0.01
1.2993240999931004,0,0,0,0,1,64,8665749,3.2887346744537354,1.0098705291748047,1.235365867614746,2.298002243041992,-0.836593508720398,0.001038322108797729,0.00497213751077652,26.42,0.0,0.1,1.04,0.0,0.0,0.0,0.18
1.3241861000133213,0,0,0,0,1,64,8665774,3.282270908355713,1.094495177268982,1.2187477350234985,2.554300546646118,-0.7866958975791931,0.004017834551632404,-0.00143212650436908,26.44,0.03,0.1,1.03,0.0,0.0,0.0,0.24
1.3619381999887992,0,0,0,0,1,64,8665811,3.2707295417785645,1.2105664014816284,1.179886817932129,2.7449517250061035,-0.8527317643165588,-0.003994714468717575,-0.00026287726359441876,26.44,0.0,0.09,0.96,0.0,0.0,0.0,0.22
1.3977786999894306,0,0,0,0,1,64,8665847,3.262664556503296,1.3059288263320923,1.126708984375,2.722332715988159,-1.0386881828308105,0.00284154387190938,-0.0027765172999352217,26.44,0.03,0.03,0.8200000000000001,0.03,0.0,0.0,0.09
1.4212049999914598,0,0,0,0,1,64,8665871,3.260484218597412,1.3550162315368652,1.0878480672836304,2.5851330757141113,-1.1703264713287354,-0.0008376219775527716,0.00036592537071555853,26.42,0.0,0.03,0.91,0.0,0.0,0.0,0.02
1.456789599993499,0,0,0,0,1,64,8665906,3.2587618827819824,1.405893325805664,1.027255654335022,2.2463576793670654,-1.340469241142273,-0.006992055103182793,-0.00021674753224942833,26.42,0.06,0.04,0.9,0.0,0.0,0.0,0.0
1.4787298000010196,0,0,0,0,1,64,8665928,3.2585575580596924,1.4258350133895874,0.9894177317619324,1.9791516065597534,-1.4205327033996582,0.004243504721671343,-0.0024317302741110325,26.42,0.01,0.0,0.92,0.0,0.0,0.0,0.01
1.5160280000127386,0,0,0,0,1,64,8665965,3.25577974319458,1.4429645538330078,0.9306151270866394,1.4953694343566895,-1.48001229763031,0.003373546525835991,-0.0003486483474262059,26.400000000000002,0.0,0.0,0.89,0.0,0.0,0.0,0.1
1.54799429999548,0,0,0,0,1,64,8665997,3.252023696899414,1.4447541236877441,0.8886861801147461,1.0834351778030396,-1.4365445375442505,0.011611569672822952,0.001810538349673152,26.42,0.03,0.0,0.89,0.0,0.0,0.0,0.24
1.572417499992298,0,0,0,0,1,64,8666022,3.2456421852111816,1.4447541236877441,0.863886833190918,0.829718291759491,-1.3396985530853271,0.008688190951943398,0.00260954350233078,26.42,0.0,0.0,0.91,0.0,0.11,0.03,0.41000000000000003
1.6111470999894664,0,0,0,0,1,64,8666061,3.2283170223236084,1.4434757232666016,0.8349968791007996,0.5421626567840576,-1.1393814086914062,0.011559659615159035,0.0062415581196546555,26.42,0.04,0.0,0.92,0.01,0.22,0.06,0.61
1.641966199997114,0,0,0,0,1,64,8666091,3.212289571762085,1.4363170862197876,0.8160778880119324,0.3375539183616638,-0.9986621737480164,-0.002625451423227787,0.012555083259940147,26.42,0.08,0.03,0.89,0.0,0.23,0.0,0.51
1.6730859999952372,0,0,0,0,1,64,8666122,3.200225830078125,1.4253238439559937,0.7943465113639832,0.14622914791107178,-0.9099104404449463,0.000551170960534364,0.010824118740856647,26.400000000000002,0.0,0.07,0.92,0.04,0.25,0.0,0.26
1.7050829000072554,0,0,0,0,1,64,8666154,3.195070743560791,1.4171425104141235,0.7685244679450989,0.025782765820622444,-0.8761788606643677,0.0030305618420243263,0.007029889151453972,26.42,0.06,0.03,1.0,0.0,0.23,0.0,0.06
1.729405099991709,0,0,0,0,1,64,8666179,3.196413993835449,1.4156084060668945,0.7475602030754089,-0.0005127440672367811,-0.8664655685424805,0.010925151407718658,0.0054268017411231995,26.42,0.06,0.0,1.06,0.0,0.17,0.0,0.0
1.7671624000067823,0,0,0,0,1,64,8666217,3.20436429977417,1.4153528213500977,0.7173916697502136,0.00012861310096923262,-0.8452411890029907,0.005430652294307947,-0.005153989419341087,26.400000000000002,0.0,0.0,1.12,0.03,0.07,0.0,0.0
1.7991663000138942,0,0,0,0,1,64,8666249,3.210393190383911,1.4150972366333008,0.6966829299926758,0.00031145603861659765,-0.7914207577705383,0.0019204113632440567,0.005585921928286552,26.42,0.0,0.0,1.1400000000000001,0.12,0.0,0.0,0.13
1.8243602000002284,0,0,0,0,1,64,8666274,3.2091405391693115,1.4148415327072144,0.6864563822746277,-0.002787843579426408,-0.708676278591156,0.005594420246779919,0.00046412888332270086,26.42,0.0,0.0,1.24,0.0,0.0,0.0,0.29
1.862058500002604,0,0,0,0,1,64,8666311,3.1996593475341797,1.4012913703918457,0.6846669316291809,-0.10134042054414749,-0.5058342814445496,0.0006181600037962198,-0.018858088180422783,26.42,0.11,0.15,0.74,0.0,0.0,0.0,0.05
1.8930578000145033,0,0,0,0,1,64,8666342,3.2063755989074707,1.3777703046798706,0.6890131831169128,-0.27981987595558167,-0.3258324861526489,-0.0010981392115354538,-0.01931007020175457,26.42,0.09,0.07,0.84,0.0,0.05,0.0,0.0
1.9245762999926228,0,0,0,0,1,64,8666374,3.2222483158111572,1.3488802909851074,0.7023077011108398,-0.4553297758102417,-0.12497592717409134,0.000865461362991482,-0.00011683022603392601,26.42,0.0,0.25,1.0,0.0,0.0,0.14,0.0
1.9494978000002448,0,0,0,0,1,64,8666399,3.2377591133117676,1.3215242624282837,0.7291523814201355,-0.5972285866737366,0.12576434016227722,0.002323485678061843,-0.0003546241205185652,26.42,0.14,0.16,1.0,0.0,0.0,0.27,0.0
1.9865356000082102,0,0,0,0,1,64,8666436,3.2591755390167236,1.2714142799377441,0.8124987483024597,-0.8355392217636108,0.7683065533638,-0.0002139213029295206,-0.0034178581554442644,26.42,0.06,0.06,1.28,0.0,0.0,0.36,0.0
2.011473799997475,0,0,0,0,1,64,8666461,3.2654895782470703,1.2381781339645386,0.8950780034065247,-0.958001971244812,1.3326194286346436,0.001143885194323957,-0.0010550784645602107,26.42,0.01,0.07,1.24,0.02,0.0,0.32,0.0
2.04772810000577,0,0,0,0,1,64,8666497,3.2609071731567383,1.2044304609298706,1.036971092224121,-0.9643732905387878,2.1519672870635986,0.005395989865064621,-0.005854798015207052,26.42,0.0,0.12,1.17,0.0,0.1,0.36,0.22
2.0684962999948766,0,0,0,0,1,64,8666518,3.253572463989258,1.1916471719741821,1.1177606582641602,-0.899340033531189,2.5032143592834473,0.0031803289894014597,-0.006623395718634129,26.42,0.0,0.11,1.03,0.0,0.16,0.47000000000000003,0.32
2.094473900011508,0,0,0,0,1,64,8666544,3.2421627044677734,1.1763075590133667,1.2136344909667969,-0.8171378970146179,2.7856240272521973,0.0082289669662714,-0.009635929018259048,26.42,0.03,0.11,0.97,0.0,0.28,0.6,0.32
2.1254201999981888,0,0,0,0,1,64,8666575,3.229789972305298,1.1497184038162231,1.3194793462753296,-0.8129963874816895,2.9692325592041016,0.0038230468053370714,-0.0029693006072193384,26.400000000000002,0.0,0.14,0.9,0.0,0.31,0.62,0.21
2.156314599997131,0,0,0,0,1,64,8666606,3.223038673400879,1.11111319065094,1.404615044593811,-0.9218029379844666,2.92411732673645,0.00404101237654686,-0.007944525219500065,26.44,0.12,0.1,0.86,0.0,0.23,0.5700000000000001,0.04
2.187551600014558,0,0,0,0,1,64,8666637,3.2212166786193848,1.0653495788574219,1.4700649976730347,-1.072952389717102,2.7093567848205566,0.010617407038807869,-0.0055356984958052635,26.42,0.08,0.08,0.85,0.0,0.12,0.5,0.0
2.2180255000130273,0,0,0,0,1,64,8666667,3.2236692905426025,1.0203527212142944,1.5109710693359375,-1.1890301704406738,2.360553503036499,0.006877926643937826,-0.0010005880612879992,26.400000000000002,0.01,0.03,0.89,0.0,0.07,0.44,0.0
2.249303599994164,0,0,0,0,1,64,8666699,3.2272679805755615,0.9743332862854004,1.5324468612670898,-1.2629793882369995,1.8867546319961548,-0.004243155475705862,-0.003530140034854412,26.42,0.03,0.0,0.96,0.0,0.07,0.36,0.0
2.2745101999898907,0,0,0,0,1,64,8666724,3.22843074798584,0.9395630955696106,1.536537528038025,-1.2945148944854736,1.49422025680542,0.0003873798996210098,0.008541963994503021,26.42,0.0,0.0,1.0,0.0,0.02,0.31,0.0
2.312319099990418,0,0,0,0,1,64,8666762,3.225790500640869,0.8902199864387512,1.536281943321228,-1.2971144914627075,0.9907952547073364,-0.0037956093437969685,0.02991076372563839,26.42,0.01,0.0,0.9500000000000001,0.0,0.0,0.18,0.31
2.3434540000162087,0,0,0,0,1,64,8666793,3.2147772312164307,0.858773410320282,1.5327024459838867,-1.2261335849761963,0.6923458576202393,0.0027373896446079016,0.021665330976247787,26.44,0.01,0.0,0.9,0.0,0.0,0.09,0.51
2.375248800002737,0,0,0,0,1,64,8666825,3.19897723197937,0.8339740633964539,1.5155730247497559,-1.0960183143615723,0.3563080132007599,0.00483484473079443,0.005199890583753586,26.42,0.0,0.03,0.88,0.0,0.0,0.06,0.54
2.4005736999970395,0,0,0,0,1,64,8666850,3.1874282360076904,0.8137766718864441,1.495375633239746,-1.0242911577224731,0.0901539996266365,0.0010920654749497771,-0.0033650400582700968,26.42,0.0,0.07,0.78,0.0,0.0,0.05,0.37
2.4373880999919493,0,0,0,0,1,64,8666887,3.18107271194458,0.7726147770881653,1.4682754278182983,-1.0367933511734009,-0.18203392624855042,-0.00024712743470445275,0.0014689886011183262,26.42,0.09,0.12,0.8300000000000001,0.07,0.0,0.01,0.0
2.4626721999957226,0,0,0,0,1,64,8666912,3.1842823028564453,0.7373332977294922,1.4595826864242554,-1.1151763200759888,-0.23265239596366882,0.005435312166810036,0.00681602768599987,26.44,0.0,0.03,0.96,0.06,0.0,0.04,0.0
2.4997941000037827,0,0,0,0,1,64,8666949,3.197153329849243,0.6856892704963684,1.4572817087173462,-1.2144149541854858,-0.17738768458366394,-0.0026422953233122826,0.023925388231873512,26.44,0.11,0.0,1.17,0.0,0.0,0.14,0.0
2.5246220999979414,0,0,0,0,1,64,8666974,3.2065932750701904,0.659611701965332,1.4572817087173462,-1.1905559301376343,-0.13484147191047668,0.005976901389658451,0.03262028470635414,26.44,0.16,0.0,1.17,0.0,0.0,0.25,0.0
2.5629378000157885,0,0,0,0,1,64,8667012,3.2092700004577637,0.6355794072151184,1.4557479619979858,-1.0156408548355103,-0.09662091732025146,-0.005334917921572924,0.029195033013820648,26.44,0.11,0.0,1.26,0.02,0.21,0.27,0.16
2.5928495000116527,0,0,0,0,1,64,8667042,3.208054780960083,0.6296990513801575,1.4447542428970337,-0.8025544285774231,-0.1566457599401474,-0.00725918123498559,0.006076018325984478,26.44,0.03,0.0,1.01,0.0,0.2,0.23,0.0
2.6237500999995973,0,0,0,0,1,64,8667073,3.2162022590637207,0.6299546360969543,1.4268579483032227,-0.572344958782196,-0.2690868079662323,-0.008141702972352505,0.004087670706212521,26.400000000000002,0.11,0.03,0.9,0.1,0.23,0.08,0.0
2.65436210000189,0,0,0,0,1,64,8667104,3.2325475215911865,0.6386473774909973,1.4007800817489624,-0.3504374623298645,-0.4166495203971863,0.0016433758428320289,-0.0009279426303692162,26.42,0.12,0.1,1.0,0.14,0.36,0.0,0.0
2.684869199991226,0,0,0,0,1,64,8667134,3.248739004135132,0.6665146946907043,1.3603852987289429,-0.026745203882455826,-0.6497377753257751,0.0043107918463647366,0.0014026828575879335,26.400000000000002,0.0,0.21,0.96,0.0,0.27,0.0,0.0
2.7165820999944117,0,0,0,0,1,64,8667166,3.2640576362609863,0.7202038764953613,1.304139494895935,0.4415099322795868,-0.9572945833206177,0.0009265854023396969,-0.00034271087497472763,26.42,0.01,0.19,1.06,0.0,0.21,0.0,0.0
2.741624399990542,0,0,0,0,1,64,8667191,3.27376389503479,0.7769611477851868,1.2570972442626953,0.8486939072608948,-1.1780234575271606,0.002389077330008149,0.0029499963857233524,26.400000000000002,0.06,0.16,1.16,0.0,0.18,0.0,0.0
2.777724399988074,0,0,0,0,1,64,8667227,3.281461477279663,0.875647246837616,1.1975278854370117,1.432539701461792,-1.3379018306732178,-0.005018662195652723,0.003678524401038885,26.42,0.09,0.1,1.2,0.0,0.03,0.0,0.0
2.798641800007317,0,0,0,0,1,64,8667248,3.2811684608459473,0.9390518069267273,1.1701717376708984,1.7426388263702393,-1.3388808965682983,0.0008866023272275925,-0.0041069104336202145,26.42,0.16,0.06,1.1,0.0,0.0,0.0,0.01
2.8245367000054102,0,0,0,0,1,64,8667274,3.277350425720215,1.021375298500061,1.1407703161239624,2.078052043914795,-1.2893702983856201,-0.0007565622217953205,-0.009403045289218426,26.400000000000002,0.0,0.07,0.99,0.0,0.0,0.0,0.16
2.8556158000137657,0,0,0,0,1,64,8667305,3.269254684448242,1.1187831163406372,1.1085567474365234,2.3735239505767822,-1.2174009084701538,-0.005502394400537014,-0.011411035433411598,26.42,0.03,0.05,0.98,0.0,0.0,0.0,0.22
2.885669200011762,0,0,0,0,1,64,8667335,3.2607076168060303,1.2062201499938965,1.0760875940322876,2.520641565322876,-1.1746392250061035,0.0040636626072227955,-0.0022785570472478867,26.400000000000002,0.0,0.07,0.85,0.05,0.0,0.0,0.22
2.916983800008893,0,0,0,0,1,64,8667366,3.253875970840454,1.2821521759033203,1.0405502319335938,2.514559507369995,-1.159921407699585,-0.0017762279603630304,-0.005932748317718506,26.400000000000002,0.0,0.08,0.8200000000000001,0.03,0.0,0.0,0.15
2.9482687000127044,0,0,0,0,1,64,8667398,3.248985767364502,1.3435114622116089,1.002200722694397,2.353299617767334,-1.1694552898406982,0.0031665267888456583,-0.00032160908449441195,26.42,0.0,0.06,0.89,0.0,0.0,0.0,0.05
2.9784994999936316,0,0,0,0,1,64,8667428,3.2465837001800537,1.3862072229385376,0.9630842208862305,2.108691453933716,-1.2001368999481201,0.0034539487678557634,-0.0031634948682039976,26.42,0.06,0.06,0.91,0.03,0.0,0.0,0.03
3.0097606999916025,0,0,0,0,1,64,8667459,3.2448596954345703,1.4150972366333008,0.9234564900398254,1.788679599761963,-1.226567029953003,0.0031127193942666054,0.00100057537201792,26.42,0.11,0.0,0.9500000000000001,0.0,0.0,0.0,0.06
3.041225499997381,0,0,0,0,1,64,8667491,3.2416932582855225,1.4291586875915527,0.8861296772956848,1.4141197204589844,-1.213579773902893,0.00467991316691041,0.0029164194129407406,26.42,0.0,0.0,0.9400000000000001,0.02,0.0,0.0,0.16
3.0720169999985956,0,0,0,0,1,64,8667521,3.2363662719726562,1.4304370880126953,0.8569841384887695,1.0438021421432495,-1.151160478591919,-0.010307559743523598,0.004219348542392254,26.42,0.0,0.0,0.97,0.05,0.01,0.0,0.32
3.1034406000107992,0,0,0,0,1,64,8667553,3.2246901988983154,1.4301813840866089,0.8309062123298645,0.7394084930419922,-1.0552945137023926,-0.02263939380645752,-0.003439886262640357,26.44,0.0,0.0,0.96,0.04,0.05,0.0,0.54
3.1344031000044197,0,0,0,0,1,64,8667584,3.2088217735290527,1.4301813840866089,0.8107089996337891,0.5320817828178406,-0.9454028606414795,-0.025347497314214706,0.005291552748531103,26.42,0.12,0.0,0.9500000000000001,0.06,0.1,0.0,0.63
3.1658399000007194,0,0,0,0,1,64,8667615,3.191650390625,1.4291586875915527,0.7935793995857239,0.37847378849983215,-0.8317369222640991,-0.029665956273674965,0.003953955136239529,26.44,0.0,0.03,0.87,0.03,0.16,0.0,0.55
3.1972636000136845,0,0,0,0,1,64,8667647,3.1794655323028564,1.423022747039795,0.775427520275116,0.2209945172071457,-0.751471221446991,-0.007380573078989983,-0.0025200610980391502,26.42,0.0,0.04,0.92,0.0,0.16,0.0,0.27
3.221815900004003,0,0,0,0,1,64,8667671,3.175987720489502,1.4214887619018555,0.7567641139030457,0.14994826912879944,-0.7502415776252747,-0.020302418619394302,-0.004316398873925209,26.42,0.0,0.0,1.0,0.0,0.1,0.0,0.13
3.2604974000132643,0,0,0,0,1,64,8667710,3.180171012878418,1.4214887619018555,0.718414306640625,0.10225515067577362,-0.8247259259223938,-0.0227282103151083,-0.0018392263446003199,26.42,0.0,0.0,1.06,0.01,0.03,0.0,0.0
3.2916101000155322,0,0,0,0,1,64,8667741,3.1888651847839355,1.4217443466186523,0.6920811533927917,0.07489665597677231,-0.8430255055427551,-0.02232302352786064,-0.004909909330308437,26.42,0.08,0.0,1.2,0.09,0.07,0.0,0.0
3.3231024999986403,0,0,0,0,1,64,8667772,3.192099094390869,1.4202104806900024,0.6767413020133972,0.046959348022937775,-0.7550488114356995,-0.015820160508155823,-0.0005635618581436574,26.42,0.17,0.01,1.19,0.0,0.0,0.0,0.06
3.3543499000079464,0,0,0,0,1,64,8667804,3.194852113723755,1.4066601991653442,0.6759741902351379,-0.07144342362880707,-0.5553803443908691,-0.010928649455308914,-0.015488659963011742,26.42,0.0,0.05,0.81,0.0,0.0,0.0,0.0
3.378900000010617,0,0,0,0,1,64,8667828,3.205742120742798,1.3915761709213257,0.6764857172966003,-0.19415263831615448,-0.42598995566368103,-0.006706392392516136,-0.024492181837558746,26.44,0.0,0.11,0.87,0.0,0.01,0.0,0.0
3.416746700007934,0,0,0,0,1,64,8667866,3.227321147918701,1.3585954904556274,0.6951491236686707,-0.4069961905479431,-0.14782044291496277,-0.0012300427770242095,-0.011727642267942429,26.44,0.0,0.27,0.99,0.0,0.0,0.0,0.0
3.447608599992236,0,0,0,0,1,64,8667897,3.246103048324585,1.3169223070144653,0.7496054768562317,-0.654869556427002,0.34081196784973145,0.001490841736085713,-0.001116455881856382,26.400000000000002,0.0,0.14,1.21,0.0,0.0,0.17,0.0
3.479034199990565,0,0,0,0,1,64,8667928,3.2592599391937256,1.2693690061569214,0.8406216502189636,-0.9007846117019653,1.038716435432434,-0.002017487306147814,-0.0005037210648879409,26.42,0.0,0.09,1.22,0.0,0.0,0.32,0.0
3.5096432999998797,0,0,0,0,1,64,8667959,3.2605912685394287,1.2317863702774048,0.9508126378059387,-1.0039597749710083,1.7372592687606812,0.0020129824988543987,0.0005789973074570298,26.400000000000002,0.0,0.13,1.24,0.0,0.0,0.39,0.06
3.540596800012281,0,0,0,0,1,64,8667990,3.252671241760254,1.2074984312057495,1.0645824670791626,-0.9510728120803833,2.286137580871582,0.0015037761768326163,-0.00187567004468292,26.400000000000002,0.0,0.14,1.1,0.0,0.11,0.48,0.22
3.5718904999957886,0,0,0,0,1,64,8668021,3.242476224899292,1.1862783432006836,1.1683820486068726,-0.8655757308006287,2.5858230590820312,0.002270228462293744,-0.00327532971277833,26.42,0.03,0.18,0.96,0.01,0.25,0.54,0.22
3.6024109999998473,0,0,0,0,1,64,8668052,3.234440565109253,1.1553430557250977,1.268090844154358,-0.8868067264556885,2.7569355964660645,-0.008873269893229008,-0.0009531024843454361,26.42,0.0,0.14,0.89,0.0,0.34,0.51,0.12
3.6335422999982256,0,0,0,0,1,64,8668083,3.230006217956543,1.112135887145996,1.355783462524414,-1.0157490968704224,2.791694164276123,-0.0012780287070199847,0.005834721028804779,26.42,0.03,0.14,0.8200000000000001,0.0,0.31,0.44,0.0
3.6636215999897104,0,0,0,0,1,64,8668113,3.2286148071289062,1.0648382902145386,1.4237899780273438,-1.164428949356079,2.656785249710083,0.002611099276691675,0.002791560720652342,26.42,0.0,0.11,0.85,0.0,0.23,0.42,0.0
3.6958581999933813,0,0,0,0,1,64,8668145,3.2273218631744385,1.01319420337677,1.4782462120056152,-1.2947920560836792,2.3920719623565674,0.004468046128749847,-0.004574092570692301,26.42,0.16,0.06,0.92,0.0,0.16,0.44,0.0
3.7199717999901623,0,0,0,0,1,64,8668169,3.2265608310699463,0.976123034954071,1.5061135292053223,-1.3505167961120605,2.127368927001953,-0.0005421270616352558,-0.006890073884278536,26.44,0.08,0.04,0.9400000000000001,0.0,0.12,0.43,0.0
3.7580936000158545,0,0,0,0,1,64,8668207,3.2239575386047363,0.9216666221618652,1.529123306274414,-1.3794580698013306,1.6343374252319336,0.0029108745511621237,0.006840066518634558,26.42,0.17,0.03,0.92,0.0,0.07,0.36,0.07
3.7881372999981977,0,0,0,0,1,64,8668237,3.2204487323760986,0.8828058242797852,1.5316797494888306,-1.3591965436935425,1.218708872795105,0.0034569597337394953,-0.010386810638010502,26.44,0.03,0.0,0.96,0.0,0.03,0.29,0.21
3.8184363000036683,0,0,0,0,1,64,8668268,3.2117984294891357,0.8485469818115234,1.5311685800552368,-1.2935553789138794,0.8709641098976135,0.0006317999213933945,-0.029104501008987427,26.400000000000002,0.0,0.0,0.9500000000000001,0.0,0.0,0.2,0.44
3.8494980999967083,0,0,0,0,1,64,8668299,3.1974709033966064,0.8234918713569641,1.5217089653015137,-1.1643247604370117,0.5555720925331116,-0.001361553673632443,-0.009965145029127598,26.42,0.0,0.0,0.9400000000000001,0.0,0.0,0.17,0.55
3.880515299999388,0,0,0,0,1,64,8668330,3.182204246520996,0.802271842956543,1.5010002851486206,-1.0272471904754639,0.2237866371870041,-0.00010474690498085693,-0.0005858109798282385,26.400000000000002,0.09,0.04,0.88,0.0,0.0,0.14,0.49
3.911413800000446,0,0,0,0,1,64,8668361,3.170379638671875,0.7759385108947754,1.4790130853652954,-0.9680371284484863,-0.042598187923431396,0.0033977054990828037,-0.0017996698152273893,26.44,0.06,0.02,0.8200000000000001,0.01,0.0,0.12,0.2
3.942718300007982,0,0,0,0,1,64,8668392,3.169196367263794,0.7381003499031067,1.467763900756836,-1.0240002870559692,-0.14429770410060883,0.0019456027075648308,-0.00039537076372653246,26.42,0.09,0.05,0.88,0.07,0.0,0.16,0.0
3.9745449000038207,0,0,0,0,1,64,8668424,3.176851749420166,0.6923367381095886,1.466485619544983,-1.1417981386184692,-0.11290576308965683,0.0016732423100620508,0.029247703030705452,26.42,0.0,0.0,1.03,0.0,0.0,0.2,0.0
3.999180899991188,0,0,0,0,1,64,8668449,3.188518762588501,0.6614014506340027,1.4659744501113892,-1.1746824979782104,-0.09001588076353073,0.0008593474631197751,0.02701980620622635,26.44,0.0,0.0,1.12,0.0,0.02,0.28,0.0
4.036944899999071,0,0,0,0,1,64,8668486,3.1997060775756836,0.6319999694824219,1.4654630422592163,-1.0660912990570068,-0.06068319454789162,0.005535324104130268,0.026279833167791367,26.42,0.06,0.0,1.25,0.0,0.11,0.35000000000000003,0.01
4.068208600016078,0,0,0,0,1,64,8668518,3.2004079818725586,0.6238186955451965,1.4531911611557007,-0.8485154509544373,-0.13280829787254333,0.0063932654447853565,0.004798787645995617,26.42,0.06,0.0,1.05,0.03,0.18,0.23,0.03
4.0932643999985885,0,0,0,0,1,64,8668543,3.2037057876586914,0.6256084442138672,1.4342721700668335,-0.6354053020477295,-0.26839160919189453,0.012951888144016266,-0.00045500544365495443,26.42,0.03,0.03,0.8300000000000001,0.0,0.09,0.14,0.0
4.129690200003097,0,0,0,0,1,64,8668579,3.222418785095215,0.6348123550415039,1.39873468875885,-0.3623134195804596,-0.48709818720817566,-0.0011741751804947853,-0.0021544264163821936,26.44,0.19,0.18,0.98,0.22,0.28,0.0,0.0
4.150145799998427,0,0,0,0,1,64,8668599,3.236358404159546,0.6529644131660461,1.3713788986206055,-0.14697593450546265,-0.6420350074768066,-0.0016591483727097511,0.004520351067185402,26.400000000000002,0.06,0.13,1.04,0.12,0.38,0.0,0.0
4.176419499999611,0,0,0,0,1,64,8668626,3.254011869430542,0.6997509002685547,1.322291374206543,0.29091790318489075,-0.9158569574356079,-0.014157028868794441,-0.0019181094830855727,26.42,0.16,0.17,1.1,0.0,0.34,0.0,0.0
4.207903400005307,0,0,0,0,1,64,8668657,3.2702691555023193,0.7779838442802429,1.2593984603881836,0.8914838433265686,-1.2278740406036377,-0.006584142334759235,0.0008858368964865804,26.44,0.0,0.11,1.1400000000000001,0.0,0.32,0.0,0.0
4.238071300002048,0,0,0,0,1,64,8668687,3.278658151626587,0.8654206395149231,1.2095438241958618,1.436150074005127,-1.3651748895645142,0.004204040393233299,0.0004700915887951851,26.42,0.0,0.04,1.18,0.0,0.19,0.0,0.0
4.269408599997405,0,0,0,0,1,64,8668719,3.2806451320648193,0.9658964276313782,1.1706832647323608,1.9176043272018433,-1.3327765464782715,-0.005655910354107618,0.006169513799250126,26.400000000000002,0.0,0.0,1.17,0.0,0.0,0.0,0.0
4.294135600008303,0,0,0,0,1,64,8668744,3.277247428894043,1.0469417572021484,1.1469062566757202,2.2176525592803955,-1.242201566696167,-0.008325302973389626,0.0037524201907217503,26.42,0.01,0.05,1.07,0.0,0.0,0.0,0.15
4.331773100013379,0,0,0,0,1,64,8668781,3.267534017562866,1.1622461080551147,1.1108579635620117,2.51320743560791,-1.1475179195404053,-0.008656847290694714,0.0016571488231420517,26.42,0.0,0.0,1.01,0.0,0.0,0.0,0.24
4.362930400006007,0,0,0,0,1,64,8668812,3.259282350540161,1.2491716146469116,1.0745534896850586,2.5978574752807617,-1.1423819065093994,-0.015819057822227478,0.0012753672199323773,26.42,0.09,0.07,0.84,0.01,0.0,0.0,0.16
4.393194600008428,0,0,0,0,1,64,8668843,3.253575086593628,1.3202461004257202,1.0326248407363892,2.52327823638916,-1.1922656297683716,-0.007238719612360001,-0.0003084818599745631,26.42,0.0,0.1,0.87,0.0,0.0,0.0,0.06
4.424386400001822,0,0,0,0,1,64,8668874,3.252007246017456,1.3754693269729614,0.9858385920524597,2.325249195098877,-1.277144432067871,-0.004663459025323391,-0.004940439015626907,26.42,0.0,0.02,0.87,0.04,0.0,0.0,0.01
4.455651600001147,0,0,0,0,1,64,8668905,3.25138783454895,1.4163755178451538,0.9362395405769348,2.0522677898406982,-1.3678491115570068,0.0014710824470967054,-0.0019861876498907804,26.42,0.06,0.0,0.91,0.0,0.0,0.0,0.0
4.486426899995422,0,0,0,0,1,64,8668936,3.251210927963257,1.4427088499069214,0.8904759287834167,1.7258998155593872,-1.4063961505889893,-0.0028756677638739347,-0.00230150343850255,26.44,0.2,0.0,0.96,0.0,0.0,0.0,0.06
4.517533900012495,0,0,0,0,1,64,8668967,3.247959613800049,1.4531911611557007,0.8541717529296875,1.3519517183303833,-1.3483436107635498,-0.0036613796837627888,0.007488577626645565,26.42,0.09,0.0,0.96,0.0,0.0,0.0,0.19
4.548408300004667,0,0,0,0,1,64,8668998,3.2415852546691895,1.4531911611557007,0.828349769115448,0.9728337526321411,-1.2136757373809814,0.004799124784767628,0.00679977610707283,26.42,0.0,0.0,0.96,0.01,0.0,0.0,0.46
4.580590400000801,0,0,0,0,1,64,8669030,3.2261245250701904,1.4521684646606445,0.8114760518074036,0.6860688328742981,-1.0217779874801636,0.005452732555568218,0.011526188813149929,26.44,0.14,0.0,0.91,0.05,0.1,0.0,0.6900000000000001
4.605250599997817,0,0,0,0,1,64,8669055,3.210568904876709,1.4447541236877441,0.8038060069084167,0.4697170853614807,-0.8556045293807983,0.0015761239919811487,-0.002645077183842659,26.42,0.0,0.0,0.86,0.03,0.17,0.0,0.71
4.644471400009934,0,0,0,0,1,64,8669094,3.1893162727355957,1.4232784509658813,0.7930682301521301,0.12651553750038147,-0.6527711153030396,-0.0031866668723523617,0.002061666687950492,26.42,0.04,0.03,0.8300000000000001,0.0,0.21,0.0,0.39
4.67548770000576,0,0,0,0,1,64,8669125,3.182169198989868,1.4115177392959595,0.7726151347160339,-0.024726547300815582,-0.6393576264381409,-0.0016229614848271012,0.004468142054975033,26.42,0.01,0.07,0.92,0.0,0.11,0.0,0.08
4.706749000004493,0,0,0,0,1,64,8669156,3.183790445327759,1.4097281694412231,0.738867461681366,-0.0393892377614975,-0.7543625831604004,0.0013859346508979797,0.010657749138772488,26.42,0.11,0.0,1.02,0.0,0.02,0.0,0.0
4.738758699997561,0,0,0,0,1,64,8669188,3.1953184604644775,1.4094724655151367,0.7005179524421692,-0.02795303426682949,-0.8860000967979431,0.011798050254583359,0.006506156641989946,26.42,0.03,0.0,1.1300000000000001,0.08,0.01,0.0,0.0
4.7633070000156295,0,0,0,0,1,64,8669213,3.20522403717041,1.4094724655151367,0.6782751083374023,-0.01988552138209343,-0.8993672728538513,0.015919145196676254,0.0019113022135570645,26.42,0.0,0.0,1.21,0.11,0.03,0.0,0.0
4.802019900002051,0,0,0,0,1,64,8669251,3.2110023498535156,1.4041036367416382,0.6637023091316223,-0.04862890765070915,-0.7473631501197815,0.01154522318392992,0.008858980610966682,26.44,0.0,0.0,1.1400000000000001,0.0,0.0,0.0,0.04
4.832969700015383,0,0,0,0,1,64,8669282,3.215477466583252,1.3844175338745117,0.6675373911857605,-0.19452010095119476,-0.512836217880249,0.0032579805701971054,0.00713970884680748,26.42,0.16,0.01,0.79,0.0,0.05,0.0,0.0
4.863547199987806,0,0,0,0,1,64,8669313,3.22916316986084,1.3527153730392456,0.6823657155036926,-0.4144967496395111,-0.2494633048772812,0.0006918158615007997,0.001608859864063561,26.400000000000002,0.0,0.33,0.96,0.0,0.0,0.0,0.0
4.894404699996812,0,0,0,0,1,64,8669344,3.246429443359375,1.3072071075439453,0.7227608561515808,-0.6950728893280029,0.15133890509605408,-0.00247004022821784,-0.005429878365248442,26.44,0.14,0.26,1.0,0.0,0.0,0.12,0.0
4.92611980001675,0,0,0,0,1,64,8669375,3.267840623855591,1.2555631399154663,0.7956247329711914,-0.9681181311607361,0.7326548099517822,0.003273550420999527,0.004388112109154463,26.39,0.0,0.07,1.21,0.0,0.0,0.2,0.0
4.956925300008152,0,0,0,0,1,64,8669406,3.279947280883789,1.211844801902771,0.8920100331306458,-1.1091142892837524,1.3767828941345215,0.004451756365597248,-0.0025803984608501196,26.42,0.0,0.03,1.21,0.02,0.0,0.24,0.0
4.987344099994516,0,0,0,0,1,64,8669437,3.2790746688842773,1.1816763877868652,1.0039905309677124,-1.082338571548462,1.9912680387496948,0.004694669507443905,-0.00010265863966196775,26.400000000000002,0.11,0.1,1.1400000000000001,0.0,0.07,0.29,0.09
5.018840200005798,0,0,0,0,1,64,8669468,3.27042555809021,1.1607118844985962,1.116737961769104,-0.969023585319519,2.4614109992980957,0.0032712817192077637,-0.006002437323331833,26.400000000000002,0.06,0.16,1.03,0.0,0.2,0.41000000000000003,0.24
5.049116999987746,0,0,0,0,1,64,8669498,3.2604751586914062,1.1371909379959106,1.2213042974472046,-0.9037173986434937,2.7378077507019043,0.0056799305602908134,0.0012355907820165157,26.42,0.12,0.07,0.97,0.0,0.32,0.42,0.2
5.080105100001674,0,0,0,0,1,64,8669529,3.2522237300872803,1.1029319763183594,1.3215246200561523,-0.9472338557243347,2.885763645172119,0.0017279582098126411,-0.006097213365137577,26.400000000000002,0.11,0.07,0.87,0.0,0.34,0.39,0.13
5.111443500005407,0,0,0,0,1,64,8669561,3.2471394538879395,1.0579352378845215,1.4053821563720703,-1.0682638883590698,2.8214099407196045,-0.002711074659600854,0.0003131227567791939,26.42,0.01,0.05,0.88,0.0,0.28,0.39,0.03
5.13631030000397,0,0,0,0,1,64,8669586,3.245086908340454,1.0180517435073853,1.4567705392837524,-1.1852835416793823,2.6583144664764404,0.0022374389227479696,-0.0017977245151996613,26.44,0.0,0.08,0.88,0.0,0.18,0.38,0.01
5.1736791000002995,0,0,0,0,1,64,8669623,3.2438344955444336,0.9577152132987976,1.5091814994812012,-1.3291271924972534,2.2678306102752686,0.004700786899775267,-0.00025027617812156677,26.44,0.06,0.05,0.91,0.0,0.12,0.38,0.0
5.20452070000465,0,0,0,0,1,64,8669654,3.243894577026367,0.9099060893058777,1.530657172203064,-1.392768383026123,1.839216947555542,0.0009135167929343879,0.004204480908811092,26.42,0.12,0.0,0.9500000000000001,0.0,0.14,0.34,0.0
5.23674610001035,0,0,0,0,1,64,8669686,3.2423136234283447,0.8649093508720398,1.533469557762146,-1.399094820022583,1.3474115133285522,0.004431985318660736,-0.012474307790398598,26.400000000000002,0.0,0.0,1.01,0.0,0.1,0.27,0.14
5.261335899995174,0,0,0,0,1,64,8669711,3.2377896308898926,0.8344853520393372,1.530657172203064,-1.3607726097106934,1.0063034296035767,0.0011037816293537617,-0.02453778125345707,26.42,0.0,0.0,0.99,0.0,0.0,0.2,0.37
5.2997251999913715,0,0,0,0,1,64,8669749,3.22237491607666,0.7961359024047852,1.5186409950256348,-1.2468681335449219,0.5749819874763489,-0.001666652038693428,-0.002162831136956811,26.42,0.04,0.0,0.88,0.0,0.0,0.12,0.54
5.330697299999883,0,0,0,0,1,64,8669780,3.207623243331909,0.768524169921875,1.4986991882324219,-1.145673394203186,0.2428886890411377,0.009213641285896301,0.0042671095579862595,26.44,0.09,0.0,0.85,0.0,0.0,0.11,0.44
5.36290460001328,0,0,0,0,1,64,8669812,3.1970083713531494,0.7373332977294922,1.4762009382247925,-1.0875507593154907,-0.029993779957294464,0.0015779215609654784,0.0013944092206656933,26.400000000000002,0.19,0.05,0.87,0.02,0.0,0.09,0.22
5.387408300011884,0,0,0,0,1,64,8669837,3.194453239440918,0.7086990475654602,1.4639291763305664,-1.0946646928787231,-0.1448429822921753,0.006183161865919828,-0.0038424150552600622,26.400000000000002,0.08,0.01,0.96,0.02,0.0,0.12,0.02
5.42533659999026,0,0,0,0,1,64,8669875,3.199838638305664,0.6603787541389465,1.4565147161483765,-1.1522941589355469,-0.16697660088539124,0.004734374117106199,0.0054874904453754425,26.44,0.0,0.0,1.07,0.0,0.0,0.23,0.0
5.456020999990869,0,0,0,0,1,64,8669905,3.20837664604187,0.6256084442138672,1.4560035467147827,-1.1602660417556763,-0.1236395314335823,0.0052400017157197,0.0004886890528723598,26.42,0.0,0.0,1.17,0.0,0.03,0.29,0.0
5.487400100013474,0,0,0,0,1,64,8669937,3.2156810760498047,0.5997864603996277,1.4557479619979858,-1.0703197717666626,-0.08644106984138489,0.001962329028174281,-0.003378106513991952,26.42,0.0,0.0,1.25,0.0,0.16,0.3,0.0
5.512541100004455,0,0,0,0,1,64,8669962,3.2198946475982666,0.593394935131073,1.4511457681655884,-0.9024387001991272,-0.09362496435642242,-0.006409510970115662,-0.009523657150566578,26.400000000000002,0.0,0.0,1.07,0.02,0.13,0.26,0.0
5.549688400002196,0,0,0,0,1,64,8669999,3.2325568199157715,0.6005535125732422,1.4304370880126953,-0.5530824065208435,-0.23174293339252472,-0.000697511073667556,0.002895536832511425,26.42,0.08,0.07,1.02,0.1,0.28,0.03,0.0
5.574464100005571,0,0,0,0,1,64,8670024,3.245840072631836,0.618449866771698,1.404870629310608,-0.27960991859436035,-0.4020397961139679,-0.005362451076507568,-0.004687140695750713,26.42,0.0,0.11,0.96,0.01,0.36,0.0,0.0
5.6112558000022545,0,0,0,0,1,64,8670061,3.265123128890991,0.6838997006416321,1.3419777154922485,0.3483046591281891,-0.7999382019042969,-0.004280236084014177,0.005393782164901495,26.42,0.0,0.21,0.99,0.0,0.21,0.0,0.0
5.6368316000152845,0,0,0,0,1,64,8670086,3.2741715908050537,0.7493494153022766,1.2880325317382812,0.8617212772369385,-1.1105539798736572,-0.0065399655140936375,-0.0016977166524156928,26.44,0.0,0.15,1.08,0.0,0.15,0.0,0.0
5.673469600005774,0,0,0,0,1,64,8670123,3.280559539794922,0.858006477355957,1.2159353494644165,1.5284584760665894,-1.3970370292663574,-0.00646526413038373,0.00245898449793458,26.42,0.16,0.1,1.1500000000000001,0.0,0.07,0.0,0.0
5.698854399990523,0,0,0,0,1,64,8670148,3.281608819961548,0.9339385032653809,1.1791200637817383,1.8738703727722168,-1.4238327741622925,-0.014032306149601936,-0.005762426648288965,26.42,0.11,0.07,1.1300000000000001,0.02,0.0,0.0,0.0
5.735218899993924,0,0,0,0,1,64,8670185,3.2769954204559326,1.0512880086898804,1.1361684799194336,2.281625509262085,-1.3400408029556274,-0.004627690650522709,0.0016300593269988894,26.42,0.0,0.05,1.1,0.01,0.0,0.0,0.19
5.760616699990351,0,0,0,0,1,64,8670210,3.2696075439453125,1.132077693939209,1.1067672967910767,2.500101327896118,-1.292611002922058,-0.0054665859788656235,0.0005503949942067266,26.44,0.17,0.06,1.03,0.0,0.0,0.0,0.26
5.797566699999152,0,0,0,0,1,64,8670247,3.2581427097320557,1.2409902811050415,1.0584468841552734,2.653531789779663,-1.2895926237106323,-0.0039723655208945274,0.0012397186364978552,26.44,0.04,0.1,0.89,0.0,0.0,0.0,0.16
5.822657000011532,0,0,0,0,1,64,8670272,3.253614664077759,1.3000484704971313,1.0246992111206055,2.5980279445648193,-1.3027069568634033,-0.0068638441152870655,0.004157841671258211,26.42,0.06,0.06,0.78,0.01,0.0,0.0,0.06
5.861608100007288,0,0,0,0,1,64,8670311,3.25262713432312,1.368054986000061,0.9730551838874817,2.3178577423095703,-1.3100413084030151,-0.0035877088084816933,0.005211221054196358,26.400000000000002,0.0,0.0,0.87,0.01,0.0,0.0,0.0
5.893080300011206,0,0,0,0,1,64,8670342,3.2535431385040283,1.4064044952392578,0.9313821792602539,2.0194694995880127,-1.3178986310958862,-0.006336893420666456,0.004591753240674734,26.400000000000002,0.09,0.0,0.88,0.03,0.0,0.0,0.0
5.924426000012318,0,0,0,0,1,64,8670374,3.2527711391448975,1.4322266578674316,0.891754150390625,1.6832445859909058,-1.301497459411621,-0.005005603656172752,0.0009495572303421795,26.42,0.11,0.0,0.93,0.0,0.0,0.0,0.12
5.949614899989683,0,0,0,0,1,64,8670399,3.2487735748291016,1.443987250328064,0.8643983006477356,1.4078829288482666,-1.2536699771881104,0.0022380047012120485,0.0017007454298436642,26.42,0.0,0.0,0.92,0.03,0.0,0.0,0.28
5.986442199995508,0,0,0,0,1,64,8670436,3.2375528812408447,1.446799397468567,0.8286053538322449,0.9841941595077515,-1.160482406616211,-0.021517669782042503,0.0034893325064331293,26.44,0.04,0.0,0.98,0.07,0.04,0.01,0.53
6.011696700006723,0,0,0,0,1,64,8670461,3.224552869796753,1.446799397468567,0.805084228515625,0.7513206601142883,-1.1083437204360962,-0.030403561890125275,0.0009584549115970731,26.400000000000002,0.0,0.0,0.9500000000000001,0.14,0.14,0.01,0.71
6.047140400012722,0,0,0,0,1,64,8670496,3.2025198936462402,1.4386181831359863,0.7749159932136536,0.46101027727127075,-1.0323874950408936,-0.016090713441371918,0.0025094905868172646,26.42,0.0,0.01,0.91,0.06,0.24,0.0,0.6
6.068873100011842,0,0,0,0,1,64,8670518,3.1916139125823975,1.42711341381073,0.7585535049438477,0.2618805468082428,-0.971073567867279,-0.006549299228936434,0.004189169034361839,26.42,0.0,0.02,0.91,0.0,0.22,0.0,0.42
6.108108899992658,0,0,0,0,1,64,8670557,3.183518886566162,1.4066601991653442,0.7294079661369324,-0.009211880154907703,-0.893173336982727,-0.0028105955570936203,0.003724377602338791,26.42,0.0,0.0,1.0,0.0,0.1,0.0,0.02
6.1391539000032935,0,0,0,0,1,64,8670588,3.188685178756714,1.4010356664657593,0.705119788646698,-0.06551244109869003,-0.8638249039649963,-0.0012592771090567112,-0.0011599219869822264,26.44,0.0,0.0,1.04,0.0,0.02,0.0,0.0
6.170291899994481,0,0,0,0,1,64,8670620,3.1981630325317383,1.4007800817489624,0.6856896281242371,-0.05051710084080696,-0.7972502708435059,0.009359822608530521,-0.002859078347682953,26.44,0.03,0.0,1.12,0.07,0.05,0.0,0.0
6.1958715000073425,0,0,0,0,1,64,8670645,3.2021188735961914,1.3995018005371094,0.6782751083374023,-0.04373733326792717,-0.6902890205383301,0.014148177579045296,0.0044974032789468765,26.42,0.08,0.0,1.22,0.02,0.05,0.0,0.04
6.232111099991016,0,0,0,0,1,64,8670681,3.2028074264526367,1.3844175338745117,0.6769968867301941,-0.14396075904369354,-0.4863285422325134,0.004521002061665058,-0.025996340438723564,26.44,0.0,0.06,0.87,0.0,0.01,0.0,0.0
6.252938199992059,0,0,0,0,1,64,8670702,3.208407163619995,1.3672881126403809,0.6775083541870117,-0.26814329624176025,-0.3851292133331299,0.00021185720106586814,-0.02876977249979973,26.42,0.01,0.15,0.77,0.0,0.05,0.0,0.0
6.278491500008386,0,0,0,0,1,64,8670728,3.2231802940368652,1.3391650915145874,0.6844110488891602,-0.4519515633583069,-0.24406833946704865,-0.0003199302009306848,-0.020589426159858704,26.44,0.01,0.36,1.0,0.0,0.0,0.0,0.0
6.310150300007081,0,0,0,0,1,64,8670759,3.24623966217041,1.295702338218689,0.7207155227661133,-0.7106140851974487,0.11283299326896667,-0.0013938967604190111,-0.013844115659594536,26.42,0.0,0.17,1.02,0.0,0.0,0.03,0.0
6.3408598999958485,0,0,0,0,1,64,8670790,3.2700674533843994,1.2501941919326782,0.791789710521698,-0.9294981956481934,0.6914287805557251,0.00394075270742178,-0.0035078246146440506,26.39,0.0,0.0,1.21,0.0,0.0,0.07,0.0
6.372014499997022,0,0,0,0,1,64,8670821,3.2803473472595215,1.2131229639053345,0.8897088170051575,-1.0118318796157837,1.3534464836120605,0.008843149989843369,-0.0074278549291193485,26.42,0.11,0.07,1.18,0.02,0.0,0.09,0.0
6.403151700011222,0,0,0,0,1,64,8670852,3.2766284942626953,1.1880680322647095,1.0060358047485352,-0.9648290276527405,2.008117437362671,0.000945274718105793,-0.0035636932589113712,26.44,0.2,0.14,1.17,0.0,0.07,0.14,0.16
6.435116500011645,0,0,0,0,1,64,8670884,3.2658157348632812,1.1701716184616089,1.127987265586853,-0.8472673296928406,2.5361766815185547,-0.0025891850236803293,-0.00023556704400107265,26.400000000000002,0.14,0.13,1.1,0.0,0.19,0.23,0.25
6.458792199991876,0,0,0,0,1,64,8670908,3.2569944858551025,1.1548317670822144,1.216191291809082,-0.7912028431892395,2.7910454273223877,0.004232383798807859,-0.0023034715559333563,26.400000000000002,0.01,0.11,1.01,0.0,0.27,0.3,0.24
6.497257000009995,0,0,0,0,1,64,8670947,3.245612621307373,1.1177605390548706,1.3468351364135742,-0.8323708176612854,2.9912357330322266,0.005591445602476597,-0.0026497356593608856,26.42,0.08,0.06,0.92,0.0,0.33,0.31,0.12
6.5279110000119545,0,0,0,0,1,64,8670977,3.240102529525757,1.0809450149536133,1.4255794286727905,-0.9346478581428528,2.9007322788238525,0.0021515777334570885,-0.0015138541348278522,26.42,0.0,0.07,0.89,0.0,0.3,0.31,0.08
6.558585199993104,0,0,0,0,1,64,8671008,3.2359209060668945,1.0367151498794556,1.4871944189071655,-1.064361810684204,2.657416582107544,-0.0016451090341433883,-0.0026684049516916275,26.44,0.09,0.1,0.88,0.0,0.21,0.34,0.02
6.589491599996109,0,0,0,0,1,64,8671039,3.234081268310547,0.9899289011955261,1.5273336172103882,-1.1883792877197266,2.2927732467651367,-0.0016870900290086865,-0.0013686977326869965,26.42,0.09,0.04,0.91,0.0,0.12,0.35000000000000003,0.0
6.620155799988424,0,0,0,0,1,64,8671069,3.2336771488189697,0.9459546208381653,1.5459970235824585,-1.264939546585083,1.8523259162902832,-0.003749629482626915,0.0030271243304014206,26.42,0.14,0.03,0.89,0.0,0.07,0.29,0.0
6.651074900000822,0,0,0,0,1,64,8671100,3.2331812381744385,0.9050485491752625,1.547531008720398,-1.2859127521514893,1.355299472808838,-0.0019399563316255808,0.009676282294094563,26.42,0.14,0.0,1.0,0.0,0.01,0.21,0.13
6.681902999989688,0,0,0,0,1,64,8671131,3.2266957759857178,0.8700225949287415,1.5424176454544067,-1.246106743812561,0.9348149299621582,0.000972954323515296,0.01886245608329773,26.42,0.06,0.0,0.99,0.0,0.0,0.14,0.4
6.713168299989775,0,0,0,0,1,64,8671162,3.2142856121063232,0.8418996930122375,1.527589201927185,-1.1542575359344482,0.5493355989456177,-0.0014307925011962652,0.009673099964857101,26.42,0.04,0.0,0.9400000000000001,0.0,0.0,0.12,0.54
6.7445238000073005,0,0,0,0,1,64,8671194,3.198474645614624,0.8127539753913879,1.5038124322891235,-1.0762830972671509,0.1842798888683319,0.00298138870857656,-0.005745533388108015,26.42,0.0,0.0,0.86,0.0,0.0,0.13,0.49
6.76902279999922,0,0,0,0,1,64,8671218,3.1885533332824707,0.7861650586128235,1.4848934412002563,-1.07131028175354,-0.03538253530859947,-0.0019819627050310373,-0.0019804188050329685,26.42,0.0,0.06,0.8200000000000001,0.01,0.0,0.12,0.35000000000000003
6.805949900008272,0,0,0,0,1,64,8671255,3.1814379692077637,0.7360550761222839,1.4629064798355103,-1.1556212902069092,-0.22147658467292786,-0.0019130143336951733,-0.004318090155720711,26.42,0.0,0.12,0.86,0.01,0.0,0.1,0.04
6.837022899999283,0,0,0,0,1,64,8671286,3.1840837001800537,0.686967670917511,1.4552364349365234,-1.2725181579589844,-0.2370971292257309,-0.004097620025277138,0.0004053350130561739,26.400000000000002,0.03,0.0,0.99,0.0,0.0,0.16,0.0
6.867103600001428,0,0,0,0,1,64,8671316,3.1932175159454346,0.6429936289787292,1.4537025690078735,-1.3345530033111572,-0.18425332009792328,0.004052733536809683,-0.03186340630054474,26.42,0.06,0.0,1.17,0.0,0.0,0.21,0.0
6.898130999994464,0,0,0,0,1,64,8671347,3.2012009620666504,0.6107800602912903,1.4534467458724976,-1.2671011686325073,-0.12981274724006653,0.00368137308396399,-0.030234167352318764,26.44,0.0,0.0,1.28,0.0,0.09,0.28,0.0
6.92956889999914,0,0,0,0,1,64,8671379,3.204357385635376,0.5954402089118958,1.4478222131729126,-1.0581998825073242,-0.1295049637556076,0.010806400328874588,-0.009999923408031464,26.44,0.06,0.0,1.1500000000000001,0.0,0.14,0.24,0.0
6.95394400000805,0,0,0,0,1,64,8671403,3.207231283187866,0.5954402089118958,1.43682861328125,-0.8270054459571838,-0.19667671620845795,-0.006416757591068745,-0.010061044245958328,26.44,0.0,0.05,0.96,0.04,0.13,0.17,0.0
6.992037699994398,0,0,0,0,1,64,8671441,3.2245736122131348,0.5995308756828308,1.414841651916504,-0.5187286734580994,-0.3181607723236084,0.0036693313159048557,-0.002038964070379734,26.44,0.08,0.04,0.96,0.07,0.31,0.0,0.0
7.023235000000568,0,0,0,0,1,64,8671473,3.2462515830993652,0.6276537775993347,1.3803272247314453,-0.15624897181987762,-0.5097753405570984,-0.0006845300085842609,-0.0011418280191719532,26.44,0.0,0.07,0.93,0.0,0.24,0.0,0.0
7.048071099998197,0,0,0,0,1,64,8671497,3.258606433868408,0.6777637600898743,1.3353303670883179,0.3102497160434723,-0.7884464263916016,-0.0041169957257807255,-0.0011293553980067372,26.400000000000002,0.0,0.22,0.98,0.0,0.17,0.0,0.0
7.085558299993863,0,0,0,0,1,64,8671535,3.2712576389312744,0.7879546284675598,1.2496830224990845,1.1540250778198242,-1.2801066637039185,-0.001432518009096384,-0.00701731164008379,26.42,0.12,0.15,1.11,0.0,0.26,0.0,0.0
7.116671299998416,0,0,0,0,1,64,8671566,3.277231454849243,0.8825502395629883,1.195482611656189,1.686712384223938,-1.4349561929702759,-0.003322931472212076,0.0002536314423196018,26.42,0.11,0.07,1.1,0.0,0.2,0.0,0.0
7.146938999998383,0,0,0,0,1,64,8671596,3.2798776626586914,0.9722879528999329,1.1630131006240845,2.040457248687744,-1.3499001264572144,-0.0018881653668358922,0.0010061487555503845,26.42,0.0,0.07,1.02,0.0,0.0,0.0,0.0
7.177648799988674,0,0,0,0,1,64,8671627,3.277862071990967,1.069440245628357,1.1371911764144897,2.3317646980285645,-1.2012611627578735,-0.005066402722150087,0.0024268045090138912,26.400000000000002,0.0,0.02,1.1,0.0,0.0,0.0,0.14
7.209090599993942,0,0,0,0,1,64,8671658,3.2702412605285645,1.1658252477645874,1.1065114736557007,2.547295093536377,-1.1252976655960083,-0.00544194970279932,-0.006136860232800245,26.42,0.08,0.06,1.02,0.0,0.0,0.0,0.23
7.239881100016646,0,0,0,0,1,64,8671689,3.261913537979126,1.2517281770706177,1.06918466091156,2.6189236640930176,-1.139962077140808,-0.006211587227880955,-0.00043363371514715254,26.44,0.01,0.11,0.88,0.0,0.0,0.0,0.13
7.271607500006212,0,0,0,0,1,64,8671721,3.257622241973877,1.3233140707015991,1.0249547958374023,2.51637601852417,-1.2035202980041504,0.002263798611238599,0.0015008692862465978,26.42,0.01,0.08,0.85,0.0,0.0,0.0,0.0
7.29612189999898,0,0,0,0,1,64,8671745,3.2578964233398438,1.3647314310073853,0.9896733164787292,2.3505685329437256,-1.261083722114563,0.001096548279747367,-0.00020073400810360909,26.42,0.11,0.03,0.88,0.0,0.0,0.0,0.0
7.334196800016798,0,0,0,0,1,64,8671783,3.2593491077423096,1.413307547569275,0.932915985584259,2.0038235187530518,-1.3402152061462402,-0.002877066610381007,-0.006500578951090574,26.400000000000002,0.0,0.0,0.93,0.03,0.0,0.0,0.0
7.364358399994671,0,0,0,0,1,64,8671814,3.2591617107391357,1.4378513097763062,0.8912429809570312,1.6723120212554932,-1.3459299802780151,0.0030097737908363342,-0.0018489646026864648,26.42,0.0,0.0,0.99,0.03,0.0,0.0,0.1
7.394882399996277,0,0,0,0,1,64,8671844,3.254629373550415,1.4488447904586792,0.8587735295295715,1.3260654211044312,-1.2793469429016113,-0.007043456193059683,-0.0033119823783636093,26.42,0.12,0.0,0.98,0.0,0.0,0.0,0.26
7.426561200001743,0,0,0,0,1,64,8671876,3.2452492713928223,1.4496116638183594,0.8306506276130676,0.9577741026878357,-1.1674227714538574,0.003964104223996401,-0.005020431242883205,26.42,0.0,0.0,0.97,0.05,0.03,0.0,0.52
7.451223400013987,0,0,0,0,1,64,8671901,3.232801914215088,1.4496116638183594,0.8114760518074036,0.7316719889640808,-1.0757110118865967,0.002077702432870865,-0.0023848521523177624,26.400000000000002,0.11,0.0,0.91,0.07,0.1,0.0,0.6900000000000001
7.490514200006146,0,0,0,0,1,64,8671940,3.207767963409424,1.4427088499069214,0.7866767048835754,0.43347975611686707,-0.9307335615158081,0.0012368685565888882,0.0048069823533296585,26.42,0.0,0.0,0.85,0.0,0.15,0.0,0.68
7.522080199996708,0,0,0,0,1,64,8671971,3.1912639141082764,1.429669976234436,0.7664791941642761,0.1989838033914566,-0.8450794219970703,0.005731753073632717,0.008465845137834549,26.42,0.0,0.04,0.78,0.0,0.18,0.0,0.42
7.553267700015567,0,0,0,0,1,64,8672003,3.1842591762542725,1.4209774732589722,0.7396345138549805,0.05384726822376251,-0.8312637805938721,-0.0005508990725502372,0.005781880114227533,26.42,0.01,0.01,0.9400000000000001,0.0,0.15,0.0,0.08
7.578085299988743,0,0,0,0,1,64,8672027,3.1864864826202393,1.4191879034042358,0.7153463363647461,0.023042332381010056,-0.8688775300979614,-0.005318818613886833,0.003917056135833263,26.400000000000002,0.01,0.0,1.08,0.0,0.06,0.0,0.0
7.614758700015955,0,0,0,0,1,64,8672064,3.1968436241149902,1.4191879034042358,0.6813433766365051,0.01853853091597557,-0.8948683738708496,-0.0012799882097169757,0.00609341636300087,26.44,0.0,0.0,1.17,0.0,0.0,0.0,0.0
7.6459853000123985,0,0,0,0,1,64,8672095,3.2039527893066406,1.4166311025619507,0.6644694209098816,-0.00047618558164685965,-0.8077417016029358,0.0020175373647361994,0.004466979764401913,26.42,0.11,0.0,1.32,0.0,0.0,0.0,0.0
7.676869199989596,0,0,0,0,1,64,8672126,3.2082207202911377,1.4028253555297852,0.6601231694221497,-0.10971935838460922,-0.6331939697265625,-0.005110338795930147,-0.016864784061908722,26.42,0.0,0.0,1.12,0.0,0.0,0.0,0.0
7.707065199996578,0,0,0,0,1,64,8672156,3.2168545722961426,1.382116675376892,0.6611458659172058,-0.262798011302948,-0.4511263966560364,0.003371726255863905,-0.021343737840652466,26.400000000000002,0.04,0.17,0.97,0.0,0.01,0.0,0.0
7.738452599995071,0,0,0,0,1,64,8672188,3.230452299118042,1.347346305847168,0.6762301325798035,-0.4788706600666046,-0.21190384030342102,-0.002365456661209464,-0.008049223572015762,26.44,0.11,0.4,1.1,0.0,0.0,0.02,0.0
7.763252500008093,0,0,0,0,1,64,8672213,3.2451841831207275,1.3049062490463257,0.7181587219238281,-0.7425796389579773,0.1810753047466278,0.007666499819606543,-0.00822226982563734,26.42,0.16,0.18,1.11,0.0,0.0,0.18,0.0
7.800736900011543,0,0,0,0,1,64,8672250,3.265338659286499,1.2320421934127808,0.8280941843986511,-1.1400786638259888,1.0484013557434082,0.0039202431216835976,-0.0035117678344249725,26.400000000000002,0.01,0.0,1.16,0.05,0.0,0.21,0.0
7.832101300009526,0,0,0,0,1,64,8672281,3.268470525741577,1.1847443580627441,0.9339386820793152,-1.2699692249298096,1.7156314849853516,-3.3363234251737595e-05,-0.008134312927722931,26.42,0.01,0.09,1.09,0.06,0.0,0.22,0.01
7.8629818999907,0,0,0,0,1,64,8672312,3.2615177631378174,1.1540647745132446,1.0390163660049438,-1.20486581325531,2.194431781768799,-0.006769632454961538,-0.0015479311114177108,26.42,0.0,0.12,1.01,0.0,0.12,0.28,0.14
7.8944319000002,0,0,0,0,1,64,8672344,3.253028631210327,1.1274757385253906,1.1382137537002563,-1.0873602628707886,2.457026481628418,-0.009114999324083328,7.974490290507674e-05,26.400000000000002,0.0,0.13,0.98,0.0,0.32,0.41000000000000003,0.12
7.919223700009752,0,0,0,0,1,64,8672368,3.247990846633911,1.1026763916015625,1.210566520690918,-1.061366081237793,2.5708539485931396,-0.0056699239648878574,-0.00463166693225503,26.400000000000002,0.0,0.1,0.99,0.0,0.39,0.44,0.11
7.956538200000068,0,0,0,0,1,64,8672406,3.240539312362671,1.0533332824707031,1.3189678192138672,-1.1307380199432373,2.66719126701355,0.003469106275588274,1.4001794625073671e-05,26.44,0.06,0.07,0.87,0.0,0.31,0.41000000000000003,0.08
7.987500299990643,0,0,0,0,1,64,8672437,3.235719919204712,1.0068025588989258,1.3925987482070923,-1.2293875217437744,2.5947892665863037,-0.008242087438702583,0.00048039841931313276,26.42,0.0,0.1,0.8,0.0,0.26,0.41000000000000003,0.1
8.018180200015195,0,0,0,0,1,64,8672467,3.2318994998931885,0.9618058204650879,1.4501231908798218,-1.3031567335128784,2.4152021408081055,-0.0023425105027854443,-0.002006253693252802,26.400000000000002,0.0,0.07,0.89,0.0,0.24,0.45,0.07
8.049350699991919,0,0,0,0,1,64,8672499,3.2280914783477783,0.9173204302787781,1.495631217956543,-1.3316642045974731,2.142026662826538,0.00693375151604414,0.0007070449646562338,26.42,0.09,0.0,0.92,0.0,0.15,0.47000000000000003,0.05
8.074218599998858,0,0,0,0,1,64,8672523,3.225510835647583,0.8891973495483398,1.516595721244812,-1.3022884130477905,1.8689813613891602,0.007846163585782051,-0.002146699232980609,26.44,0.19,0.0,0.8200000000000001,0.0,0.12,0.49,0.11
8.113117500004591,0,0,0,0,1,64,8672562,3.2204971313476562,0.8539158701896667,1.526566505432129,-1.170581340789795,1.3367688655853271,0.0037200315855443478,0.004172395449131727,26.42,0.0,0.0,0.86,0.05,0.33,0.39,0.19
8.144230000005336,0,0,0,0,1,64,8672594,3.213123321533203,0.8291165232658386,1.5257996320724487,-1.0521787405014038,0.9405513405799866,0.002762140706181526,0.0032655680552124977,26.42,0.08,0.0,1.2,0.0,0.08,0.26,0.45
8.16960329998983,0,0,0,0,1,64,8672619,3.2026522159576416,0.8063624501228333,1.5257996320724487,-1.0123317241668701,0.7200013399124146,0.002297621686011553,-7.397431181743741e-05,26.42,0.0,0.0,1.06,0.0,0.0,0.19,0.52
8.205696899996838,0,0,0,0,1,64,8672655,3.1871421337127686,0.774915874004364,1.515317440032959,-0.9734991192817688,0.4211847186088562,0.0050544519908726215,-0.006581938359886408,26.400000000000002,0.09,0.03,0.89,0.03,0.0,0.1,0.38
8.226403300010134,0,0,0,0,1,64,8672676,3.180750846862793,0.7585533261299133,1.499721884727478,-0.9330231547355652,0.20019911229610443,0.006614541169255972,-0.0017376032192260027,26.42,0.0,0.06,0.92,0.01,0.0,0.08,0.26
8.252118900010828,0,0,0,0,1,64,8672701,3.177015781402588,0.7373332977294922,1.4779905080795288,-0.9058896899223328,-0.04963184893131256,0.003585920901969075,-0.005112361162900925,26.42,0.0,0.0,0.93,0.0,0.0,0.13,0.06
8.283413700002711,0,0,0,0,1,64,8672733,3.1802029609680176,0.701540470123291,1.4583044052124023,-0.9581180214881897,-0.22454339265823364,0.0007734339451417327,-5.444686394184828e-05,26.42,0.12,0.0,0.98,0.0,0.0,0.23,0.0
8.308592000015778,0,0,0,0,1,64,8672758,3.1872000694274902,0.6672816276550293,1.4542137384414673,-1.047951102256775,-0.22364512085914612,-0.002009538933634758,-0.01639753393828869,26.44,0.09,0.0,1.06,0.0,0.0,0.34,0.0
8.345413400005782,0,0,0,0,1,64,8672795,3.1980085372924805,0.6230518221855164,1.4529355764389038,-1.1095046997070312,-0.15616092085838318,0.001615108922123909,-0.029467377811670303,26.400000000000002,0.0,0.0,1.2,0.0,0.0,0.41000000000000003,0.0
8.377113700000336,0,0,0,0,1,64,8672826,3.2032389640808105,0.6025988459587097,1.4483333826065063,-1.0010969638824463,-0.13894030451774597,0.005237066652625799,-0.01028080377727747,26.400000000000002,0.11,0.02,1.1400000000000001,0.03,0.1,0.39,0.0
8.40882410001359,0,0,0,0,1,64,8672858,3.2107608318328857,0.6020873188972473,1.4301815032958984,-0.7314171195030212,-0.24950727820396423,-0.006367735099047422,0.0019747167825698853,26.400000000000002,0.0,0.16,0.9400000000000001,0.09,0.06,0.21,0.0
8.433327900012955,0,0,0,0,1,64,8672883,3.225931167602539,0.6077120900154114,1.4122852087020874,-0.5142300724983215,-0.35846951603889465,-0.00846727192401886,-0.0015992129920050502,26.400000000000002,0.01,0.11,1.07,0.21,0.26,0.0,0.0
8.47101430001203,0,0,0,0,1,64,8672920,3.2532241344451904,0.6399256587028503,1.3818610906600952,-0.09599393606185913,-0.4997703731060028,-0.0026338156312704086,0.003177565522491932,26.400000000000002,0.11,0.11,1.03,0.0,0.27,0.0,0.0
8.501980900007766,0,0,0,0,1,64,8672951,3.267857789993286,0.7081877589225769,1.3417218923568726,0.5036946535110474,-0.7051277160644531,-0.0025484729558229446,-0.0012752104084938765,26.400000000000002,0.06,0.18,1.1,0.0,0.18,0.0,0.0
8.533065099996747,0,0,0,0,1,64,8672982,3.2737388610839844,0.8050840497016907,1.293145775794983,1.2167409658432007,-0.942415714263916,0.0008234272245317698,0.009479939006268978,26.400000000000002,0.01,0.11,1.16,0.0,0.13,0.0,0.0
8.564555699995253,0,0,0,0,1,64,8673014,3.2710225582122803,0.914508044719696,1.2537736892700195,1.8479751348495483,-1.0427215099334717,-0.00010681612184271216,0.0022762822918593884,26.42,0.0,0.11,1.1,0.0,0.07,0.0,0.05
8.589489500009222,0,0,0,0,1,64,8673039,3.2662193775177,0.9978544116020203,1.231530785560608,2.1986184120178223,-1.0152370929718018,0.002141000470146537,-0.0013530701398849487,26.400000000000002,0.01,0.11,1.07,0.03,0.0,0.0,0.12
8.627292899996974,0,0,0,0,1,64,8673077,3.2570836544036865,1.1172491312026978,1.2018741369247437,2.515448570251465,-0.927971601486206,-0.0016183325788006186,0.0005885145510546863,26.400000000000002,0.24,0.1,1.04,0.0,0.0,0.0,0.16
8.657686299993657,0,0,0,0,1,64,8673107,3.249877452850342,1.2031521797180176,1.1701717376708984,2.6093640327453613,-0.9495816230773926,0.002174931112676859,0.0031905905343592167,26.400000000000002,0.0,0.15,0.92,0.02,0.0,0.0,0.14
8.688735800009454,0,0,0,0,1,64,8673138,3.2461533546447754,1.2767833471298218,1.129776954650879,2.557323932647705,-1.0408618450164795,-0.003699965076521039,0.013374244794249535,26.400000000000002,0.01,0.08,0.9,0.0,0.0,0.0,0.02
8.719485800014809,0,0,0,0,1,64,8673169,3.245187759399414,1.3345632553100586,1.0845245122909546,2.3700244426727295,-1.153867483139038,-0.006526992656290531,0.0019274461083114147,26.44,0.0,0.07,0.89,0.01,0.0,0.0,0.0
8.750036899989937,0,0,0,0,1,64,8673199,3.2449965476989746,1.3772588968276978,1.034414291381836,2.1206321716308594,-1.287608027458191,-0.0010981385130435228,-0.0014533333014696836,26.400000000000002,0.12,0.01,0.87,0.02,0.0,0.0,0.0
8.780996899993625,0,0,0,0,1,64,8673230,3.243931770324707,1.4099839925765991,0.978424072265625,1.8292245864868164,-1.4264565706253052,-0.0010883742943406105,0.002823225222527981,26.400000000000002,0.01,0.05,0.9,0.01,0.0,0.0,0.02
8.812638300005347,0,0,0,0,1,64,8673262,3.2415106296539307,1.4304370880126953,0.9249906539916992,1.4961848258972168,-1.5059903860092163,0.0013194000348448753,0.0011004986008629203,26.400000000000002,0.0,0.05,0.9,0.0,0.0,0.0,0.07
8.837648200016702,0,0,0,0,1,64,8673287,3.238718271255493,1.4370841979980469,0.889964759349823,1.2181202173233032,-1.4915075302124023,-0.002142449142411351,-0.003380568465217948,26.400000000000002,0.03,0.0,0.9,0.01,0.0,0.0,0.15
8.874154099990847,0,0,0,0,1,64,8673323,3.233081102371216,1.43682861328125,0.8526375889778137,0.8311195969581604,-1.354986548423767,-0.007596062030643225,0.0008353590383194387,26.44,0.11,0.0,0.9,0.03,0.04,0.0,0.35000000000000003
8.894667499989737,0,0,0,0,1,64,8673344,3.2262790203094482,1.4365729093551636,0.8357639312744141,0.6644526720046997,-1.2466846704483032,-0.007745353505015373,0.0068273600190877914,26.42,0.12,0.0,0.92,0.04,0.1,0.0,0.48
8.920759300002828,0,0,0,0,1,64,8673370,3.214869260787964,1.4365729093551636,0.8181231617927551,0.5037983655929565,-1.110188603401184,-0.0057968320325016975,0.00783759355545044,26.44,0.0,0.0,0.92,0.0,0.2,0.0,0.5700000000000001
8.951967500004685,0,0,0,0,1,64,8673401,3.2000112533569336,1.4332491159439087,0.7986927032470703,0.3396574556827545,-0.9721778035163879,0.004908828064799309,0.000293813762255013,26.44,0.0,0.0,0.87,0.0,0.25,0.0,0.49
8.983199100010097,0,0,0,0,1,64,8673432,3.188951253890991,1.4255794286727905,0.7777283787727356,0.1808672845363617,-0.8843902945518494,0.00712255435064435,0.00011345359962433577,26.400000000000002,0.12,0.05,0.88,0.0,0.21,0.0,0.25
9.014271799998824,0,0,0,0,1,64,8673464,3.186035633087158,1.4214887619018555,0.7503722310066223,0.08298476785421371,-0.8679238557815552,-0.006657909601926804,0.004034185782074928,26.42,0.08,0.0,1.01,0.0,0.09,0.0,0.05
9.039484500011895,0,0,0,0,1,64,8673489,3.1886277198791504,1.4214887619018555,0.7245502471923828,0.06558290123939514,-0.9014714956283569,-0.019441109150648117,-0.0025326181203126907,26.42,0.08,0.0,1.04,0.02,0.04,0.0,0.0
9.076667199988151,0,0,0,0,1,64,8673526,3.198415994644165,1.4217443466186523,0.6849225163459778,0.04719748720526695,-0.9575271606445312,-0.027770450338721275,-0.0008947354508563876,26.42,0.0,0.0,1.1400000000000001,0.03,0.05,0.0,0.0
9.101575500011677,0,0,0,0,1,64,8673551,3.204232692718506,1.4214887619018555,0.6621685028076172,0.036308638751506805,-0.9539667367935181,-0.024300940334796906,0.007177125196903944,26.400000000000002,0.01,0.0,1.2,0.06,0.04,0.0,0.04
9.138956800015876,0,0,0,0,1,64,8673588,3.203930616378784,1.4181652069091797,0.6427380442619324,0.004439488518983126,-0.8331329226493835,-0.013890120200812817,0.00694578792899847,26.42,0.14,0.02,1.1,0.0,0.0,0.0,0.12
9.163630600000033,0,0,0,0,1,64,8673613,3.204437732696533,1.4033366441726685,0.6427380442619324,-0.11519798636436462,-0.6539332866668701,-0.011844159103929996,-0.011964311823248863,26.400000000000002,0.04,0.17,0.8,0.0,0.0,0.0,0.0
9.203254299995024,0,0,0,0,1,64,8673653,3.22391939163208,1.3626861572265625,0.6642138361930847,-0.41778960824012756,-0.26098695397377014,-0.0002698473399505019,-0.008237459696829319,26.44,0.01,0.31,1.0,0.0,0.0,0.0,0.0
9.23448750001262,0,0,0,0,1,64,8673684,3.249450445175171,1.3217800855636597,0.7156022191047668,-0.6642767786979675,0.23583513498306274,-0.002307056449353695,0.0005632813554257154,26.42,0.0,0.05,1.1,0.0,0.0,0.06,0.0
9.265587300003972,0,0,0,0,1,64,8673715,3.266749143600464,1.281640887260437,0.803294837474823,-0.8474968671798706,0.9265231490135193,-0.008443391881883144,-0.00698917405679822,26.400000000000002,0.0,0.1,1.21,0.02,0.0,0.18,0.0
9.296440800011624,0,0,0,0,1,64,8673746,3.2706313133239746,1.2519840002059937,0.9134855270385742,-0.8929647207260132,1.6469320058822632,-0.009764761663973331,-0.005479632876813412,26.42,0.0,0.05,1.24,0.0,0.0,0.27,0.0
9.327232999989064,0,0,0,0,1,64,8673776,3.26344633102417,1.2343430519104004,1.0321134328842163,-0.8158709406852722,2.2697083950042725,-0.00826582033187151,-0.006125453859567642,26.400000000000002,0.11,0.1,1.2,0.0,0.12,0.32,0.23
9.358653600007528,0,0,0,0,1,64,8673808,3.2518153190612793,1.218747615814209,1.153042197227478,-0.7131903171539307,2.711136817932129,0.0007738552521914244,0.0016037587774917483,26.400000000000002,0.0,0.13,1.04,0.0,0.22,0.46,0.27
9.383615400001872,0,0,0,0,1,64,8673833,3.243650436401367,1.1982946395874023,1.2438026666641235,-0.7206487059593201,2.9241650104522705,0.008987152948975563,0.002771156607195735,26.42,0.01,0.1,0.98,0.0,0.29,0.5,0.2
9.420498699997552,0,0,0,0,1,64,8673870,3.235531806945801,1.1507411003112793,1.3619194030761719,-0.8870581388473511,3.0225417613983154,0.008551361039280891,0.0058405413292348385,26.400000000000002,0.0,0.05,0.9400000000000001,0.0,0.33,0.49,0.03
9.445701099990401,0,0,0,0,1,64,8673895,3.233238697052002,1.1100906133651733,1.4243011474609375,-1.050891399383545,2.914210319519043,0.0015192944556474686,0.0007647961610928178,26.400000000000002,0.09,0.08,0.88,0.0,0.28,0.51,0.0
9.481987600011053,0,0,0,0,1,64,8673931,3.2323715686798096,1.0482200384140015,1.4894953966140747,-1.2647151947021484,2.578537702560425,-0.0005479705287143588,-0.001299739466048777,26.44,0.03,0.1,0.87,0.0,0.15,0.54,0.0
9.502988799999002,0,0,0,0,1,64,8673952,3.2333364486694336,1.0129384994506836,1.5137834548950195,-1.350395679473877,2.3072781562805176,0.000885578861925751,0.0036626020446419716,26.400000000000002,0.06,0.02,0.9,0.0,0.13,0.55,0.0
9.528909799992107,0,0,0,0,1,64,8673978,3.234043598175049,0.9710097312927246,1.5311685800552368,-1.4156566858291626,1.9235994815826416,0.0008638993604108691,0.002600045409053564,26.42,0.16,0.0,0.89,0.0,0.1,0.51,0.0
9.559921300009592,0,0,0,0,1,64,8674009,3.234072685241699,0.9239676594734192,1.5370488166809082,-1.4442458152770996,1.4480582475662231,-0.003145155729725957,0.010215084068477154,26.42,0.16,0.0,0.9400000000000001,0.02,0.07,0.41000000000000003,0.05
9.591187000012724,0,0,0,0,1,64,8674040,3.2305586338043213,0.8825502395629883,1.5367931127548218,-1.4154435396194458,1.035687804222107,0.0011452289763838053,0.02897874265909195,26.42,0.06,0.0,0.96,0.0,0.0,0.32,0.32
9.622050300007686,0,0,0,0,1,64,8674071,3.219186305999756,0.8518705368041992,1.5329581499099731,-1.3077536821365356,0.7209925651550293,-0.0008078996906988323,0.019213339313864708,26.400000000000002,0.0,0.0,0.99,0.0,0.0,0.2,0.53
9.65363499999512,0,0,0,0,1,64,8674103,3.20310115814209,0.8283494114875793,1.5132721662521362,-1.1446939706802368,0.35606634616851807,-0.0007996230851858854,0.0005270501133054495,26.400000000000002,0.01,0.0,0.9,0.0,0.0,0.14,0.53
9.678772399987793,0,0,0,0,1,64,8674128,3.1917290687561035,0.8073851466178894,1.491540789604187,-1.0629137754440308,0.0741669163107872,0.004889697767794132,0.0022871841210871935,26.400000000000002,0.0,0.03,0.8200000000000001,0.0,0.0,0.12,0.37
9.715648100012913,0,0,0,0,1,64,8674165,3.185039520263672,0.7621326446533203,1.4672527313232422,-1.0951405763626099,-0.17673738300800323,0.007834167219698429,-0.0008057337254285812,26.42,0.06,0.03,0.85,0.04,0.0,0.12,0.0
9.741028599994024,0,0,0,0,1,64,8674190,3.1881442070007324,0.7214820981025696,1.4629064798355103,-1.2095695734024048,-0.18811532855033875,0.009198630228638649,-0.015011388808488846,26.42,0.0,0.0,0.9500000000000001,0.05,0.0,0.16,0.0
9.777910100005101,0,0,0,0,1,64,8674227,3.200204610824585,0.6606343388557434,1.4616279602050781,-1.358580470085144,-0.13262906670570374,0.005427873693406582,-0.03217901661992073,26.400000000000002,0.0,0.0,1.18,0.0,0.02,0.25,0.0
9.802933600003598,0,0,0,0,1,64,8674252,3.2087655067443848,0.6312330365180969,1.4613723754882812,-1.3348313570022583,-0.10129990428686142,0.002651036251336336,-0.033129703253507614,26.400000000000002,0.0,0.0,1.23,0.0,0.13,0.26,0.0
9.839678699994693,0,0,0,0,1,64,8674289,3.213341474533081,0.6118027567863464,1.4508901834487915,-1.0938087701797485,-0.14217950403690338,-0.0014442645478993654,-0.010006610304117203,26.42,0.11,0.0,1.1400000000000001,0.01,0.22,0.23,0.0
9.86479690001579,0,0,0,0,1,64,8674314,3.215919017791748,0.6118027567863464,1.4370845556259155,-0.8404944539070129,-0.23586662113666534,-0.010819284245371819,-0.0017452253960072994,26.42,0.03,0.07,1.01,0.0,0.13,0.13,0.0
9.901908700005151,0,0,0,0,1,64,8674351,3.2312543392181396,0.6128252148628235,1.4202104806900024,-0.5597401857376099,-0.31389689445495605,-0.012776670046150684,0.003958265297114849,26.400000000000002,0.0,0.07,1.03,0.19,0.23,0.0,0.0
9.926832099998137,0,0,0,0,1,64,8674376,3.2466444969177246,0.6258640289306641,1.4064048528671265,-0.33539101481437683,-0.3558429181575775,-0.006492007989436388,0.008706210181117058,26.42,0.12,0.03,0.92,0.03,0.26,0.0,0.0
9.965788900008192,0,0,0,0,1,64,8674415,3.2648985385894775,0.7025631070137024,1.3583399057388306,0.392020046710968,-0.6242460608482361,0.0005687809316441417,0.0003255156916566193,26.42,0.11,0.2,0.98,0.0,0.12,0.0,0.0
9.996172499988461,0,0,0,0,1,64,8674445,3.270420551300049,0.7935792803764343,1.3077186346054077,1.0946648120880127,-0.9138163328170776,-0.0006623485824093223,-0.00030408226302824914,26.42,0.0,0.2,1.06,0.0,0.19,0.0,0.0
10.02788999999757,0,0,0,0,1,64,8674477,3.2709226608276367,0.8945663571357727,1.264767050743103,1.6957380771636963,-1.060765027999878,-0.0004695341922342777,-0.0015097645809873939,26.42,0.0,0.1,1.11,0.0,0.18,0.0,0.0
10.051934799994342,0,0,0,0,1,64,8674501,3.269791603088379,0.9687086939811707,1.2422689199447632,2.0106561183929443,-1.0385057926177979,-0.0002699964679777622,0.00414286507293582,26.44,0.01,0.15,1.06,0.0,0.04,0.0,0.02
10.089051599992672,0,0,0,0,1,64,8674538,3.265451669692993,1.0835016965866089,1.214657187461853,2.3587656021118164,-0.9375976324081421,-0.0038691754452884197,0.003907493315637112,26.42,0.11,0.11,1.09,0.0,0.0,0.0,0.14
10.120124500012025,0,0,0,0,1,64,8674569,3.2584564685821533,1.1786084175109863,1.1834663152694702,2.552212953567505,-0.9413089752197266,-0.006765155121684074,-0.0009150130208581686,26.42,0.0,0.1,1.06,0.0,0.0,0.0,0.21
10.151089899998624,0,0,0,0,1,64,8674600,3.2520532608032227,1.2642556428909302,1.1428155899047852,2.614382743835449,-1.0350453853607178,0.0006479883450083435,-0.0002508615143597126,26.42,0.06,0.05,0.9,0.0,0.0,0.0,0.12
10.181919900001958,0,0,0,0,1,64,8674631,3.2487952709198,1.333284854888916,1.096029281616211,2.517240047454834,-1.1613781452178955,0.002650981768965721,-0.0030705411918461323,26.400000000000002,0.08,0.07,0.92,0.0,0.0,0.0,0.0
10.21317890001228,0,0,0,0,1,64,8674662,3.2489535808563232,1.3869742155075073,1.043107032775879,2.3086981773376465,-1.305932879447937,0.004783967509865761,-0.006032707169651985,26.42,0.06,0.08,0.85,0.0,0.0,0.0,0.0
10.244513500016183,0,0,0,0,1,64,8674694,3.2511582374572754,1.429925560951233,0.9840488433837891,2.0334880352020264,-1.4590213298797607,0.007492403965443373,0.0013456379529088736,26.42,0.0,0.0,0.87,0.0,0.0,0.0,0.0
10.268902999989223,0,0,0,0,1,64,8674718,3.2524802684783936,1.4534467458724976,0.9413528442382812,1.8045096397399902,-1.535101294517517,0.002614514669403434,0.0018179198959842324,26.400000000000002,0.0,0.0,0.89,0.0,0.0,0.0,0.0
10.306953999999678,0,0,0,0,1,64,8674756,3.2527780532836914,1.47492253780365,0.8858740925788879,1.4044629335403442,-1.5237699747085571,0.002357617486268282,0.004664751701056957,26.400000000000002,0.08,0.01,0.8200000000000001,0.0,0.0,0.0,0.1
10.33801500001573,0,0,0,0,1,64,8674787,3.2503163814544678,1.4779905080795288,0.8554499745368958,1.048046588897705,-1.3818470239639282,0.013613371178507805,0.0035576527006924152,26.400000000000002,0.06,0.0,0.89,0.0,0.01,0.0,0.22
10.368876399996225,0,0,0,0,1,64,8674818,3.242709159851074,1.4777346849441528,0.8360195159912109,0.7504035830497742,-1.177512288093567,0.00524586858227849,0.006347506772726774,26.42,0.12,0.0,0.91,0.1,0.14,0.0,0.49
10.400403400009964,0,0,0,0,1,64,8674850,3.228153944015503,1.4779905080795288,0.8204240798950195,0.5339483022689819,-0.9741490483283997,0.01544359140098095,-0.0060227857902646065,26.42,0.0,0.0,0.9500000000000001,0.06,0.29,0.0,0.6
10.425077299994882,0,0,0,0,1,64,8674874,3.216505527496338,1.4777346849441528,0.8045730590820312,0.4151219427585602,-0.890524685382843,0.01612621359527111,-0.008054877631366253,26.42,0.0,0.0,0.93,0.0,0.29,0.0,0.5700000000000001
10.46316059998935,0,0,0,0,1,64,8674912,3.2021143436431885,1.4777346849441528,0.7659680247306824,0.27861687541007996,-0.9196118116378784,0.010534382425248623,-0.002606492256745696,26.400000000000002,0.17,0.0,0.93,0.0,0.15,0.0,0.27
10.493520399992121,0,0,0,0,1,64,8674943,3.1988232135772705,1.4779905080795288,0.7222493290901184,0.20266146957874298,-1.046818733215332,0.016103889793157578,-0.005118253640830517,26.400000000000002,0.11,0.0,1.07,0.0,0.0,0.0,0.05
10.524780400010059,0,0,0,0,1,64,8674974,3.2036423683166504,1.4759451150894165,0.6780195236206055,0.13655826449394226,-1.1637862920761108,0.021715005859732628,-0.003925037104636431,26.42,0.0,0.0,1.17,0.1,0.0,0.0,0.0
10.556112699996447,0,0,0,0,1,64,8675005,3.210808753967285,1.4636732339859009,0.6463174819946289,-0.000563301146030426,-1.1388849020004272,0.003263785969465971,0.0056961397640407085,26.44,0.17,0.0,1.32,0.01,0.0,0.0,0.0
10.588157599995611,0,0,0,0,1,64,8675037,3.215329885482788,1.4393850564956665,0.6307217478752136,-0.20582269132137299,-0.9686868190765381,-0.0016404094640165567,9.43080522119999e-06,26.44,0.0,0.0,1.24,0.0,0.0,0.0,0.0
10.612501700001303,0,0,0,0,1,64,8675062,3.2178430557250977,1.4156084060668945,0.6312332153320312,-0.37639740109443665,-0.747620165348053,0.00335089024156332,0.020406119525432587,26.42,0.11,0.2,0.9400000000000001,0.0,0.06,0.0,0.0
10.649175300000934,0,0,0,0,1,64,8675098,3.230388641357422,1.3744467496871948,0.6547543406486511,-0.6098479628562927,-0.3305990695953369,-0.000964500242844224,0.006062827073037624,26.42,0.0,0.32,1.16,0.0,0.0,0.04,0.0
10.669059800013201,0,0,0,0,1,64,8675118,3.2430453300476074,1.3445340394973755,0.690546989440918,-0.7637652158737183,0.036904044449329376,0.0019152413588017225,0.00549742067232728,26.400000000000002,0.03,0.15,0.98,0.0,0.0,0.14,0.0
10.696047500008717,0,0,0,0,1,64,8675145,3.257202625274658,1.3008155822753906,0.7677574157714844,-0.9761104583740234,0.7000154256820679,-0.001440669409930706,-0.009748815558850765,26.400000000000002,0.03,0.12,0.92,0.1,0.0,0.1,0.0
10.725645099999383,0,0,0,0,1,64,8675175,3.264326333999634,1.2578641176223755,0.8738577961921692,-1.1115347146987915,1.4667450189590454,-0.006949886679649353,0.0005400830414146185,26.42,0.06,0.07,1.03,0.1,0.0,0.08,0.0
10.756680199992843,0,0,0,0,1,64,8675206,3.260012149810791,1.2305082082748413,0.9904403686523438,-1.0655778646469116,2.102046251296997,-0.010288207791745663,-0.0012055281549692154,26.42,0.0,0.14,1.0,0.0,0.0,0.1,0.18
10.78767859999789,0,0,0,0,1,64,8675237,3.249938726425171,1.2136343717575073,1.0993528366088867,-0.920506477355957,2.5121517181396484,-0.007103545591235161,-0.0021593566052615643,26.42,0.08,0.21,0.93,0.0,0.13,0.24,0.2
10.818906700005755,0,0,0,0,1,64,8675268,3.2413876056671143,1.1913915872573853,1.2018741369247437,-0.8458383083343506,2.732004404067993,-0.00783650204539299,-0.005136962980031967,26.42,0.01,0.14,0.9500000000000001,0.0,0.27,0.37,0.1
10.849984100001166,0,0,0,0,1,64,8675299,3.235931634902954,1.1573883295059204,1.3020941019058228,-0.9019206166267395,2.869269847869873,-0.007936744950711727,-0.002123996615409851,26.42,0.0,0.12,0.89,0.0,0.34,0.4,0.05
10.88121449999744,0,0,0,0,1,64,8675330,3.2334859371185303,1.1154595613479614,1.3859516382217407,-1.0213350057601929,2.8343653678894043,-0.0030539752915501595,-0.006496011279523373,26.42,0.09,0.11,0.9500000000000001,0.0,0.3,0.4,0.0
10.912130799988518,0,0,0,0,1,64,8675361,3.2328922748565674,1.0704628229141235,1.4516572952270508,-1.1432539224624634,2.6468236446380615,-0.004433130845427513,-0.006220660172402859,26.44,0.09,0.03,0.93,0.0,0.22,0.43,0.0
10.943264700006694,0,0,0,0,1,64,8675393,3.232365369796753,1.0231651067733765,1.5007444620132446,-1.2368806600570679,2.3396036624908447,-0.010304014198482037,-0.002649634378030896,26.400000000000002,0.0,0.03,0.91,0.0,0.18,0.45,0.0
10.968161400000099,0,0,0,0,1,64,8675417,3.2311558723449707,0.98890620470047,1.5252882242202759,-1.2793997526168823,2.0534541606903076,0.0003681827802211046,-0.0032282511238008738,26.400000000000002,0.04,0.04,0.9500000000000001,0.0,0.16,0.43,0.02
11.005043899989687,0,0,0,0,1,64,8675454,3.228480339050293,0.9393075108528137,1.5408836603164673,-1.3021069765090942,1.538407564163208,0.009851020760834217,0.006095970049500465,26.42,0.0,0.0,0.9500000000000001,0.0,0.07,0.33,0.07
11.036557200015523,0,0,0,0,1,64,8675486,3.2247931957244873,0.9009578824043274,1.5380715131759644,-1.2755528688430786,1.075842022895813,0.00463514169678092,-0.010247338563203812,26.44,0.0,0.0,0.9400000000000001,0.0,0.0,0.24,0.29
11.061157199990703,0,0,0,0,1,64,8675510,3.2175416946411133,0.8774369359016418,1.5298901796340942,-1.212050437927246,0.7669985890388489,0.005178607534617186,-0.00671722088009119,26.44,0.0,0.0,0.92,0.0,0.0,0.2,0.44
11.0984019000025,0,0,0,0,1,64,8675548,3.201378583908081,0.850592315196991,1.50253427028656,-1.0487045049667358,0.2856157124042511,0.0011256227735430002,-0.0010677522514015436,26.42,0.0,0.0,0.89,0.0,0.0,0.18,0.49
11.129423800011864,0,0,0,0,1,64,8675579,3.189113140106201,0.8255372047424316,1.4744113683700562,-0.9668819904327393,-0.0494382306933403,-0.002375385956838727,-0.0023827124387025833,26.44,0.12,0.07,0.8300000000000001,0.0,0.0,0.12,0.31
11.160383600014029,0,0,0,0,1,64,8675610,3.1844236850738525,0.7869319915771484,1.4570261240005493,-1.0291974544525146,-0.20679554343223572,-0.0075715831480920315,0.0025308788754045963,26.42,0.0,0.09,0.8200000000000001,0.03,0.0,0.14,0.0
11.191072999994503,0,0,0,0,1,64,8675640,3.1879801750183105,0.7375890612602234,1.4534467458724976,-1.1864145994186401,-0.19166122376918793,0.0025539305061101913,-0.016905829310417175,26.42,0.16,0.03,0.91,0.0,0.0,0.19,0.0
11.221824700012803,0,0,0,0,1,64,8675671,3.199852228164673,0.6867119669914246,1.4521684646606445,-1.3206193447113037,-0.14295372366905212,0.004430566448718309,-0.015913264825940132,26.44,0.12,0.0,1.07,0.0,0.01,0.33,0.0
11.2534852999961,0,0,0,0,1,64,8675703,3.2116823196411133,0.645805835723877,1.4516572952270508,-1.324668288230896,-0.10165192186832428,-0.0021421308629214764,-0.012035381980240345,26.400000000000002,0.06,0.0,1.34,0.0,0.14,0.33,0.0
11.278324899991276,0,0,0,0,1,64,8675728,3.217106580734253,0.6243302226066589,1.4470552206039429,-1.2247945070266724,-0.11067432910203934,0.0036543228197842836,0.0042462279088795185,26.42,0.14,0.0,1.21,0.02,0.21,0.28,0.0
11.315526199992746,0,0,0,0,1,64,8675765,3.228569746017456,0.6102685928344727,1.4365730285644531,-0.964766263961792,-0.1645640879869461,-0.0031966499518603086,0.003859742544591427,26.400000000000002,0.0,0.0,1.09,0.0,0.06,0.26,0.0
11.346075300010853,0,0,0,0,1,64,8675795,3.239199638366699,0.6115469932556152,1.4235340356826782,-0.6997620463371277,-0.2281825840473175,-0.0032567325979471207,-0.004020716063678265,26.42,0.12,0.13,0.89,0.07,0.27,0.02,0.0
11.376503400009824,0,0,0,0,1,64,8675826,3.256960868835449,0.6340453028678894,1.3872299194335938,-0.3311043083667755,-0.45608535408973694,0.0011049315799027681,0.0010479711927473545,26.400000000000002,0.0,0.17,0.9500000000000001,0.0,0.25,0.0,0.0
11.40783989999909,0,0,0,0,1,64,8675857,3.2730469703674316,0.6948931813240051,1.320501685142517,0.2717170715332031,-0.9022889733314514,0.0026402827352285385,0.0018707177368924022,26.400000000000002,0.0,0.25,0.9400000000000001,0.0,0.14,0.0,0.0
11.439202800014755,0,0,0,0,1,64,8675888,3.2895398139953613,0.7787507176399231,1.2432914972305298,0.9430398344993591,-1.3576465845108032,-0.0038992755580693483,0.002170650055631995,26.42,0.06,0.1,1.1,0.0,0.23,0.0,0.0
11.46973350000917,0,0,0,0,1,64,8675919,3.3012778759002686,0.8677217364311218,1.1832107305526733,1.484264850616455,-1.5473895072937012,-0.009160327725112438,0.001019578310661018,26.400000000000002,0.0,0.0,1.08,0.0,0.23,0.0,0.0
11.500992899993435,0,0,0,0,1,64,8675950,3.3071696758270264,0.9595049023628235,1.1466506719589233,1.8864026069641113,-1.4611047506332397,-0.009331868961453438,0.005879890639334917,26.42,0.09,0.0,1.1,0.0,0.0,0.0,0.0
11.530650200002128,0,0,0,0,1,64,8675980,3.305903434753418,1.0558900833129883,1.1213401556015015,2.227278232574463,-1.2913240194320679,-0.0013929243432357907,0.004041035659611225,26.42,0.0,0.01,1.1300000000000001,0.0,0.0,0.0,0.11
11.56199519999791,0,0,0,0,1,64,8676011,3.2979421615600586,1.1581554412841797,1.0978189706802368,2.5258126258850098,-1.1374692916870117,0.005170814692974091,-0.002086576772853732,26.42,0.0,0.03,1.0,0.0,0.0,0.0,0.23
11.59307540001464,0,0,0,0,1,64,8676042,3.290497064590454,1.2542848587036133,1.0732752084732056,2.695335626602173,-1.0351450443267822,0.00264930073171854,-0.0007316874689422548,26.42,0.0,0.0,0.96,0.0,0.0,0.0,0.19
11.624464599997737,0,0,0,0,1,64,8676074,3.2838687896728516,1.340187668800354,1.0438737869262695,2.699467182159424,-0.9924449920654297,0.005044873803853989,0.0062853810377418995,26.400000000000002,0.16,0.0,0.96,0.0,0.0,0.0,0.17
11.64933650000603,0,0,0,0,1,64,8676099,3.279639959335327,1.3946441411972046,1.013450026512146,2.5884132385253906,-1.0317877531051636,0.004126125946640968,-0.0058294921182096004,26.400000000000002,0.0,0.0,0.92,0.0,0.0,0.0,0.19
11.687035400012974,0,0,0,0,1,64,8676136,3.273024559020996,1.4529353380203247,0.956181526184082,2.2712812423706055,-1.190145492553711,0.002076299162581563,-0.0031520165503025055,26.44,0.17,0.01,0.92,0.03,0.0,0.0,0.14
11.718630199990002,0,0,0,0,1,64,8676168,3.268691301345825,1.4774789810180664,0.9037704467773438,1.8587517738342285,-1.3238892555236816,0.0007607238949276507,0.0016426435904577374,26.44,0.09,0.0,0.9,0.0,0.0,0.0,0.13
11.743311500002164,0,0,0,0,1,64,8676193,3.264892339706421,1.4805469512939453,0.8669548034667969,1.469599723815918,-1.366856575012207,-0.00033252371940761805,0.0025570117868483067,26.42,0.0,0.0,0.92,0.0,0.0,0.0,0.23
11.780515199992806,0,0,0,0,1,64,8676230,3.253335952758789,1.4751781225204468,0.8201684951782227,0.9446215629577637,-1.3354113101959229,0.005217608995735645,0.010286757722496986,26.42,0.0,0.0,0.85,0.03,0.07,0.02,0.55
11.810746700008167,0,0,0,0,1,64,8676260,3.2377591133117676,1.4623948335647583,0.7902558445930481,0.579993486404419,-1.2460722923278809,-0.008941096253693104,-0.001656767213717103,26.400000000000002,0.0,0.0,0.8200000000000001,0.14,0.19,0.0,0.61
11.841985400009435,0,0,0,0,1,64,8676291,3.221564531326294,1.4424530267715454,0.7621329426765442,0.24071896076202393,-1.147434949874878,0.004508553072810173,0.0016886226367205381,26.42,0.0,0.0,0.88,0.0,0.24,0.0,0.47000000000000003
11.873196700005792,0,0,0,0,1,64,8676322,3.2109062671661377,1.423022747039795,0.7319647669792175,-0.003914378117769957,-1.0943725109100342,0.0009185064118355513,0.006225684657692909,26.44,0.11,0.0,0.91,0.0,0.15,0.0,0.26
11.90397899999516,0,0,0,0,1,64,8676353,3.207481861114502,1.4097281694412231,0.7010294795036316,-0.12904678285121918,-1.0657165050506592,-0.00019728858023881912,-0.0007987639983184636,26.42,0.12,0.0,1.05,0.03,0.05,0.0,0.07
11.936224600009155,0,0,0,0,1,64,8676385,3.2103466987609863,1.4051262140274048,0.6721394658088684,-0.13944554328918457,-1.020898461341858,0.0017200525617226958,-0.008864420466125011,26.44,0.08,0.0,1.12,0.06,0.02,0.0,0.01
11.96040169999469,0,0,0,0,1,64,8676410,3.2140443325042725,1.4051262140274048,0.6534757614135742,-0.10355667024850845,-0.9620699286460876,-0.0011204088805243373,-0.0045477766543626785,26.42,0.0,0.0,1.17,0.11,0.07,0.0,0.06
11.998493499995675,0,0,0,0,1,64,8676448,3.2138097286224365,1.4035924673080444,0.6343011856079102,-0.07421090453863144,-0.8178443908691406,-0.014538709074258804,-0.007004642393440008,26.400000000000002,0.0,0.07,1.1500000000000001,0.0,0.02,0.0,0.21
12.029411199997412,0,0,0,0,1,64,8676479,3.211791753768921,1.3918317556381226,0.6314888000488281,-0.14554882049560547,-0.6242519617080688,-0.0025886567309498787,0.002255754079669714,26.400000000000002,0.0,0.1,0.93,0.0,0.11,0.0,0.0
12.061221200012369,0,0,0,0,1,64,8676510,3.221355676651001,1.3718900680541992,0.634556770324707,-0.2782925069332123,-0.4247501492500305,-0.0038010331336408854,-0.013717166148126125,26.42,0.0,0.1,0.92,0.0,0.0,0.0,0.0
12.092140699998708,0,0,0,0,1,64,8676541,3.239049196243286,1.343255639076233,0.6527090072631836,-0.44799456000328064,-0.16660714149475098,0.005026174243539572,-0.008177807554602623,26.44,0.08,0.15,0.96,0.0,0.0,0.0,0.0
12.123160299990559,0,0,0,0,1,64,8676572,3.2572786808013916,1.3005599975585938,0.7081880569458008,-0.69029301404953,0.3300046920776367,0.0013532927259802818,-0.0021162587217986584,26.42,0.0,0.11,1.03,0.0,0.0,0.14,0.0
12.154371300013736,0,0,0,0,1,64,8676604,3.2682173252105713,1.250449776649475,0.8055956959724426,-0.9444382786750793,1.075867772102356,2.2047897800803185e-05,0.0022910877596586943,26.400000000000002,0.0,0.11,1.1400000000000001,0.03,0.0,0.17,0.0
12.17953920000582,0,0,0,0,1,64,8676629,3.2692794799804688,1.2192589044570923,0.8937994837760925,-1.030042052268982,1.643375039100647,-0.0015464224852621555,-0.004867807030677795,26.42,0.0,0.14,1.12,0.0,0.01,0.14,0.0
12.217309600004228,0,0,0,0,1,64,8676667,3.2619967460632324,1.194715142250061,1.0336475372314453,-0.9201936721801758,2.3246331214904785,0.0001263734302483499,0.009639267809689045,26.42,0.0,0.13,1.07,0.0,0.05,0.18,0.15
12.247965999995358,0,0,0,0,1,64,8676697,3.2536959648132324,1.1852556467056274,1.1392364501953125,-0.751882016658783,2.6511621475219727,-0.003644440323114395,0.00023912067990750074,26.44,0.0,0.07,1.06,0.0,0.15,0.26,0.22
12.278167899989057,0,0,0,0,1,64,8676727,3.244204044342041,1.1688932180404663,1.2435470819473267,-0.6764410138130188,2.8675436973571777,-0.003641559276729822,0.003997947089374065,26.42,0.0,0.07,1.02,0.0,0.23,0.28,0.23
12.309241600014502,0,0,0,0,1,64,8676758,3.234969139099121,1.1377023458480835,1.347346305847168,-0.75324547290802,3.0045228004455566,0.0019088778644800186,-0.0025544175878167152,26.400000000000002,0.0,0.09,0.98,0.0,0.21,0.2,0.17
12.34036920001381,0,0,0,0,1,64,8676790,3.227874994277954,1.093983769416809,1.4350391626358032,-0.9222915768623352,2.9440410137176514,-0.0042714085429906845,-0.0033580567687749863,26.42,0.01,0.11,0.93,0.0,0.13,0.21,0.11
12.365622999990592,0,0,0,0,1,64,8676815,3.223567247390747,1.0574239492416382,1.488472819328308,-1.0465348958969116,2.7724392414093018,-0.007005105726420879,-0.006506188772618771,26.42,0.0,0.11,0.87,0.0,0.11,0.23,0.05
12.40240970000741,0,0,0,0,1,64,8676852,3.2202343940734863,1.006546974182129,1.537304401397705,-1.1584193706512451,2.3205409049987793,-0.0049894521944224834,0.001863915822468698,26.42,0.0,0.05,0.91,0.0,0.1,0.29,0.03
12.427949000004446,0,0,0,0,1,64,8676877,3.218287467956543,0.973310649394989,1.5511102676391602,-1.1949423551559448,1.9238311052322388,0.0012816478265449405,-0.0006330144824460149,26.400000000000002,0.0,0.01,0.96,0.0,0.1,0.3,0.06
12.46467409998877,0,0,0,0,1,64,8676914,3.2148752212524414,0.9244790077209473,1.5536669492721558,-1.233927845954895,1.3236441612243652,0.0005606480408459902,0.021512016654014587,26.42,0.09,0.0,0.97,0.0,0.0,0.24,0.21
12.489683399995556,0,0,0,0,1,64,8676939,3.20920467376709,0.8930323719978333,1.5526442527770996,-1.2416974306106567,1.0057696104049683,-0.0019795456901192665,0.028906535357236862,26.42,0.03,0.0,0.88,0.0,0.0,0.19,0.41000000000000003
12.526434400002472,0,0,0,0,1,64,8676976,3.194230079650879,0.8554498553276062,1.5388383865356445,-1.1750785112380981,0.5745047330856323,0.004526364151388407,0.0009992392733693123,26.42,0.14,0.0,0.91,0.0,0.0,0.14,0.49
12.551742200012086,0,0,0,0,1,64,8677001,3.183319330215454,0.8329513669013977,1.5211976766586304,-1.1076973676681519,0.28421545028686523,0.0011038720840588212,0.003950711339712143,26.400000000000002,0.0,0.03,0.89,0.0,0.0,0.14,0.42
12.589349000016227,0,0,0,0,1,64,8677039,3.1730897426605225,0.7925565838813782,1.4925633668899536,-1.0810989141464233,-0.06167113035917282,-0.011963747441768646,-0.004919511266052723,26.400000000000002,0.0,0.06,0.85,0.01,0.0,0.11,0.13
12.620569199993042,0,0,0,0,1,64,8677070,3.174016237258911,0.7506278157234192,1.4790130853652954,-1.1483875513076782,-0.17521978914737701,0.0028351028449833393,-0.0037820462603121996,26.42,0.0,0.01,0.89,0.07,0.0,0.08,0.0
12.651688899990404,0,0,0,0,1,64,8677101,3.1821815967559814,0.7053753733634949,1.4726215600967407,-1.233445644378662,-0.18919040262699127,-0.005796023178845644,0.00859160628169775,26.400000000000002,0.01,0.0,1.05,0.0,0.0,0.13,0.0
12.682228399993619,0,0,0,0,1,64,8677131,3.192610740661621,0.6672816276550293,1.4685310125350952,-1.2551391124725342,-0.16603626310825348,-0.006125125102698803,-0.01228391658514738,26.400000000000002,0.14,0.0,1.18,0.0,0.1,0.09,0.0
12.712701200012816,0,0,0,0,1,64,8677162,3.2020227909088135,0.6412038803100586,1.4593271017074585,-1.1523793935775757,-0.19115504622459412,0.001884471159428358,-0.005197885446250439,26.42,0.0,0.0,1.12,0.0,0.25,0.08,0.0
12.743264299992006,0,0,0,0,1,64,8677192,3.21415114402771,0.6327670216560364,1.4444986581802368,-0.9340720772743225,-0.26857608556747437,0.0026555077638477087,-0.007654231041669846,26.42,0.0,0.0,1.06,0.0,0.14,0.05,0.0
12.7742825000023,0,0,0,0,1,64,8677224,3.2304184436798096,0.6389029622077942,1.4255794286727905,-0.6197988390922546,-0.35755300521850586,0.0016520043136551976,0.0028214058838784695,26.400000000000002,0.06,0.08,1.0,0.1,0.23,0.0,0.0
12.799754100007704,0,0,0,0,1,64,8677249,3.246443271636963,0.6606343388557434,1.4025697708129883,-0.30473387241363525,-0.4694003164768219,-0.0015564316418021917,-0.0023697796277701855,26.44,0.14,0.13,0.92,0.05,0.25,0.0,0.0
12.834402100008447,0,0,0,0,1,64,8677284,3.2656235694885254,0.7340097427368164,1.347090721130371,0.398975670337677,-0.7917122840881348,-0.005982153583317995,0.0038789273239672184,26.39,0.06,0.14,1.03,0.0,0.19,0.0,0.0
12.856730100000277,0,0,0,0,1,64,8677306,3.2744805812835693,0.7979254722595215,1.304395079612732,0.9075959324836731,-1.0277416706085205,-0.002549092285335064,0.005111968144774437,26.400000000000002,0.0,0.08,1.17,0.0,0.24,0.0,0.0
12.895978100015782,0,0,0,0,1,64,8677345,3.2806358337402344,0.9152750968933105,1.2435470819473267,1.6286638975143433,-1.2296638488769531,-0.010606719180941582,-0.0010582972317934036,26.400000000000002,0.01,0.1,1.1400000000000001,0.0,0.2,0.0,0.0
12.927734099997906,0,0,0,0,1,64,8677377,3.281306743621826,1.0093592405319214,1.2123562097549438,2.0014970302581787,-1.1670215129852295,-0.0012631012359634042,0.0031700879335403442,26.42,0.0,0.07,1.19,0.0,0.0,0.0,0.0
12.952932499989402,0,0,0,0,1,64,8677402,3.278958797454834,1.0865696668624878,1.191391944885254,2.2354319095611572,-1.0843394994735718,-3.136502346023917e-05,-0.0008830240112729371,26.42,0.0,0.09,1.1300000000000001,0.0,0.0,0.0,0.1
12.989962499996182,0,0,0,0,1,64,8677439,3.269437551498413,1.2039190530776978,1.1494630575180054,2.5333659648895264,-1.082916498184204,0.002903696848079562,0.0032380037009716034,26.44,0.11,0.1,0.9500000000000001,0.0,0.0,0.0,0.25
13.01493480001227,0,0,0,0,1,64,8677464,3.262735366821289,1.2783170938491821,1.1146926879882812,2.6468279361724854,-1.1487228870391846,0.0036737576592713594,0.005460022483021021,26.42,0.0,0.02,0.86,0.0,0.0,0.0,0.21
13.0521080000035,0,0,0,0,1,64,8677501,3.256230354309082,1.3649870157241821,1.06100332736969,2.564729928970337,-1.2445082664489746,0.00022902758792042732,0.0065506091341376305,26.42,0.0,0.01,0.88,0.03,0.0,0.0,0.09
13.076878199994098,0,0,0,0,1,64,8677526,3.2536203861236572,1.4084497690200806,1.0218868255615234,2.380500078201294,-1.31294846534729,0.0020352876745164394,-0.0012404529843479395,26.400000000000002,0.0,0.0,0.86,0.03,0.0,0.0,0.07
13.113369800004875,0,0,0,0,1,64,8677563,3.250491142272949,1.4531911611557007,0.9607833027839661,2.008759021759033,-1.4195297956466675,0.0022526809480041265,-0.006841160356998444,26.400000000000002,0.03,0.0,0.88,0.0,0.0,0.0,0.09
13.138849999988452,0,0,0,0,1,64,8677588,3.2483973503112793,1.4713430404663086,0.9203885197639465,1.7192853689193726,-1.4672285318374634,-0.0051989867351949215,-0.0029009170830249786,26.44,0.11,0.0,0.9,0.0,0.0,0.0,0.13
13.175521700002719,0,0,0,0,1,64,8677625,3.242694616317749,1.4782460927963257,0.8705342411994934,1.2377413511276245,-1.4375911951065063,0.004779796116054058,0.0019470314728096128,26.42,0.0,0.0,0.91,0.0,0.0,0.0,0.25
13.200912800006336,0,0,0,0,1,64,8677650,3.2360410690307617,1.4764562845230103,0.8457348942756653,0.9304587841033936,-1.3426387310028076,0.016391055658459663,-0.004583408590406179,26.42,0.0,0.0,0.92,0.07,0.05,0.0,0.51
13.237446599989198,0,0,0,0,1,64,8677687,3.218456983566284,1.4654628038406372,0.8201684951782227,0.5404382348060608,-1.1362444162368774,0.001321334857493639,-0.003976414445787668,26.400000000000002,0.09,0.0,0.93,0.06,0.17,0.0,0.64
13.2629803000018,0,0,0,0,1,64,8677712,3.204679489135742,1.4511457681655884,0.8063628077507019,0.2884993851184845,-0.9985264539718628,0.0035409682895988226,-0.00870294775813818,26.400000000000002,0.0,0.0,0.89,0.04,0.2,0.0,0.5700000000000001
13.298730800015619,0,0,0,0,1,64,8677748,3.1907520294189453,1.430948257446289,0.7815634608268738,0.013403849676251411,-0.8889914751052856,-0.0028924907092005014,-0.0021047748159617186,26.400000000000002,0.06,0.01,0.9,0.0,0.17,0.0,0.25
13.324198299989803,0,0,0,0,1,64,8677773,3.1875600814819336,1.424045443534851,0.7580423355102539,-0.06055320426821709,-0.8915677666664124,0.0012630460551008582,0.0038713167887181044,26.400000000000002,0.0,0.0,0.96,0.0,0.11,0.0,0.08
13.360754699999234,0,0,0,0,1,64,8677810,3.1921515464782715,1.4225114583969116,0.7179031372070312,-0.058077916502952576,-0.9534016847610474,0.00037461076863110065,-0.008026652038097382,26.42,0.08,0.0,1.06,0.0,0.02,0.0,0.0
13.39207639999222,0,0,0,0,1,64,8677841,3.200115203857422,1.4222558736801147,0.6869678497314453,-0.03959820419549942,-0.9726415872573853,-0.0027028124313801527,-0.007811060640960932,26.400000000000002,0.0,0.0,1.17,0.06,0.01,0.0,0.0
13.423817500006407,0,0,0,0,1,64,8677873,3.2023885250091553,1.4179095029830933,0.6675373911857605,-0.05606593191623688,-0.881108283996582,-0.006028061266988516,-0.014497345313429832,26.400000000000002,0.0,0.01,1.24,0.0,0.0,0.0,0.03
13.448115900013363,0,0,0,0,1,64,8677897,3.203350067138672,1.4041036367416382,0.6652364730834961,-0.15484145283699036,-0.7225728631019592,-0.003262185025960207,-0.0009116372093558311,26.44,0.01,0.11,1.0,0.0,0.0,0.0,0.0
13.485630899987882,0,0,0,0,1,64,8677935,3.2143521308898926,1.3662654161453247,0.6790421605110168,-0.4183182418346405,-0.3775792121887207,-0.0013615856878459454,-0.007282995153218508,26.400000000000002,0.0,0.36,1.11,0.0,0.0,0.0,0.0
13.516823500016471,0,0,0,0,1,64,8677966,3.233912467956543,1.320501685142517,0.7204596400260925,-0.7020516991615295,0.06503415107727051,0.00010095740435644984,-0.0034204430412501097,26.42,0.01,0.16,0.99,0.0,0.0,0.14,0.0
13.547476600011578,0,0,0,0,1,64,8677997,3.25146484375,1.2686020135879517,0.7956247329711914,-0.9738945960998535,0.6944504380226135,-0.0023022706154733896,-0.005329339765012264,26.400000000000002,0.01,0.17,1.01,0.0,0.0,0.15,0.0
13.578425399988191,0,0,0,0,1,64,8678028,3.2600395679473877,1.222582459449768,0.8958447575569153,-1.1309380531311035,1.3865853548049927,0.005224947817623615,-0.006154666189104319,26.42,0.01,0.09,1.19,0.0,0.0,0.18,0.0
13.609146400005557,0,0,0,0,1,64,8678058,3.2583816051483154,1.1924142837524414,1.009359359741211,-1.112539529800415,2.023616313934326,0.005367020610719919,-0.0035757124423980713,26.44,0.0,0.07,1.07,0.0,0.0,0.19,0.12
13.640607700013788,0,0,0,0,1,64,8678090,3.249877452850342,1.1747735738754272,1.1302881240844727,-0.9579464793205261,2.534107208251953,-0.003209309186786413,-0.0020937558729201555,26.42,0.12,0.04,1.0,0.0,0.13,0.27,0.27
13.664998399995966,0,0,0,0,1,64,8678114,3.2415807247161865,1.164035677909851,1.2190033197402954,-0.8358274102210999,2.791236400604248,-0.001121743582189083,-0.005769043229520321,26.42,0.0,0.07,0.96,0.0,0.25,0.35000000000000003,0.28
13.702480300009483,0,0,0,0,1,64,8678152,3.229257345199585,1.1369352340698242,1.352971076965332,-0.7794467210769653,3.0391061305999756,-0.0006514822598546743,-0.002616854617372155,26.400000000000002,0.0,0.08,0.92,0.0,0.32,0.35000000000000003,0.2
13.73339350000606,0,0,0,0,1,64,8678183,3.2235281467437744,1.1039546728134155,1.4391298294067383,-0.8496015071868896,2.9869158267974854,-0.0013188804732635617,-0.0027643037028610706,26.42,0.0,0.06,0.9,0.0,0.3,0.36,0.09
13.764729099988472,0,0,0,0,1,64,8678214,3.2203500270843506,1.063559889793396,1.5048351287841797,-0.9684175848960876,2.7541868686676025,-0.0028902986086905003,-0.005384072661399841,26.42,0.0,0.09,0.89,0.0,0.23,0.36,0.0
13.79507290001493,0,0,0,0,1,64,8678244,3.2211148738861084,1.0198415517807007,1.543440341949463,-1.0972565412521362,2.3755078315734863,-0.003799682017415762,-0.007039724383503199,26.400000000000002,0.0,0.07,0.9400000000000001,0.0,0.23,0.33,0.0
13.826365799992345,0,0,0,0,1,64,8678276,3.2237796783447266,0.969731330871582,1.5621038675308228,-1.2286911010742188,1.8733385801315308,-0.004705450497567654,-0.005175441969186068,26.44,0.0,0.01,0.92,0.01,0.24,0.28,0.0
13.851178000011714,0,0,0,0,1,64,8678300,3.226465940475464,0.9334271550178528,1.5636377334594727,-1.2969460487365723,1.4765725135803223,0.00017130374908447266,0.014454435557126999,26.42,0.01,0.0,0.93,0.0,0.2,0.21,0.0
13.888053200003924,0,0,0,0,1,64,8678337,3.2272348403930664,0.8858737945556641,1.5595470666885376,-1.300873875617981,0.9600791931152344,-0.001226836466230452,0.012128402478992939,26.42,0.09,0.0,0.98,0.0,0.02,0.07,0.2
13.918403099989519,0,0,0,0,1,64,8678368,3.2202279567718506,0.8608186841011047,1.547019600868225,-1.173835277557373,0.5906800031661987,-0.003635962260887027,-0.00339439045637846,26.44,0.0,0.0,0.96,0.0,0.0,0.04,0.43
13.948464399989462,0,0,0,0,1,64,8678398,3.208235025405884,0.8459903597831726,1.5252882242202759,-0.9924643039703369,0.2407112419605255,-0.0031162374652922153,-0.0017477693036198616,26.400000000000002,0.06,0.0,0.99,0.0,0.0,0.06,0.55
13.980211499991128,0,0,0,0,1,64,8678429,3.1945297718048096,0.8242588043212891,1.5033012628555298,-0.8915050625801086,-0.033433541655540466,-0.008278814144432545,-0.0035218503326177597,26.400000000000002,0.0,0.0,0.92,0.01,0.0,0.11,0.46
14.011154100007843,0,0,0,0,1,64,8678460,3.1859140396118164,0.7864206433296204,1.4910293817520142,-0.9617989659309387,-0.1407860368490219,0.002042371779680252,0.005157277453690767,26.42,0.06,0.01,0.88,0.03,0.0,0.12,0.2
14.041690200014273,0,0,0,0,1,64,8678491,3.185331106185913,0.7360550761222839,1.4877057075500488,-1.1403597593307495,-0.13676759600639343,-0.00020504905842244625,-0.01715790294110775,26.42,0.01,0.0,1.0,0.0,0.0,0.18,0.0
14.072073199989973,0,0,0,0,1,64,8678521,3.1922647953033447,0.6838997006416321,1.487450122833252,-1.3060965538024902,-0.09626947343349457,-0.005203914362937212,-0.03183761611580849,26.44,0.0,0.07,1.11,0.0,0.0,0.26,0.0
14.104154400003608,0,0,0,0,1,64,8678553,3.2035093307495117,0.6419709324836731,1.4841264486312866,-1.3286590576171875,-0.08848152309656143,0.0026592793874442577,-0.009234226308763027,26.42,0.0,0.0,1.25,0.02,0.11,0.3,0.0
14.128184000001056,0,0,0,0,1,64,8678577,3.213442802429199,0.6273981928825378,1.4723659753799438,-1.193291425704956,-0.16310374438762665,0.0015090565430000424,-0.013871178030967712,26.42,0.08,0.02,1.17,0.02,0.13,0.33,0.0
14.165684100007638,0,0,0,0,1,64,8678615,3.233289957046509,0.6319999694824219,1.4447542428970337,-0.770967423915863,-0.3444337844848633,-0.0018213829025626183,-0.007476555183529854,26.42,0.0,0.06,1.03,0.1,0.32,0.07,0.0
14.196487700013677,0,0,0,0,1,64,8678646,3.2527732849121094,0.6629352569580078,1.408961296081543,-0.31071099638938904,-0.5495237708091736,-0.0005287647945806384,-0.003657289780676365,26.400000000000002,0.0,0.14,0.9500000000000001,0.0,0.25,0.0,0.0
14.226776299998164,0,0,0,0,1,64,8678676,3.2667903900146484,0.7306860089302063,1.3527154922485352,0.3496284782886505,-0.8859683275222778,0.007273595314472914,0.0026066754944622517,26.42,0.08,0.21,1.0,0.0,0.17,0.0,0.0
14.258149500004947,0,0,0,0,1,64,8678707,3.2775638103485107,0.8268154263496399,1.2847089767456055,1.1048858165740967,-1.2552106380462646,0.0011380284558981657,0.005877627059817314,26.44,0.19,0.13,1.19,0.0,0.2,0.0,0.0
14.288586700015003,0,0,0,0,1,64,8678738,3.282444715499878,0.9293365478515625,1.2297414541244507,1.7233220338821411,-1.4225603342056274,0.0011747429380193353,0.0034781291615217924,26.42,0.0,0.03,1.26,0.0,0.11,0.0,0.0
14.319727499998407,0,0,0,0,1,64,8678769,3.281830072402954,1.0310906171798706,1.1959937810897827,2.1622354984283447,-1.3464938402175903,-0.0022341040894389153,0.010166862979531288,26.42,0.03,0.08,1.04,0.0,0.0,0.0,0.07
14.350848800007952,0,0,0,0,1,64,8678800,3.2758772373199463,1.1292654275894165,1.1704273223876953,2.467463970184326,-1.196055293083191,-0.003866736777126789,0.006571637000888586,26.42,0.03,0.1,1.0,0.0,0.0,0.0,0.22
14.382084999990184,0,0,0,0,1,64,8678831,3.2669243812561035,1.2266731262207031,1.1423044204711914,2.6274466514587402,-1.1026036739349365,-0.004818664398044348,-0.00019538018386811018,26.42,0.0,0.03,0.85,0.0,0.0,0.0,0.22
14.412905700010015,0,0,0,0,1,64,8678862,3.2595436573028564,1.3077186346054077,1.1052331924438477,2.634035110473633,-1.1159571409225464,-0.0024861623533070087,0.0014178809942677617,26.400000000000002,0.01,0.08,0.92,0.0,0.0,0.0,0.14
14.444391600001836,0,0,0,0,1,64,8678894,3.2546536922454834,1.3734240531921387,1.0574241876602173,2.4763104915618896,-1.213181495666504,-0.002072888659313321,0.00016303674783557653,26.400000000000002,0.03,0.1,0.85,0.0,0.0,0.0,0.03
14.46934899999178,0,0,0,0,1,64,8678919,3.2535970211029053,1.4115177392959595,1.0152397155761719,2.2675349712371826,-1.3199794292449951,-0.00715958047658205,-0.0006549846148118377,26.42,0.0,0.05,0.85,0.0,0.0,0.0,0.0
14.506973100011237,0,0,0,0,1,64,8678956,3.2550296783447266,1.4506343603134155,0.9526020884513855,1.879443883895874,-1.4452234506607056,-0.0023946387227624655,-0.0025492324493825436,26.42,0.0,0.0,0.93,0.03,0.0,0.0,0.0
14.539224500011187,0,0,0,0,1,64,8678988,3.254744529724121,1.4680194854736328,0.9060713648796082,1.5045654773712158,-1.4568161964416504,0.0015556379221379757,0.0012079018633812666,26.42,0.01,0.0,0.99,0.02,0.0,0.0,0.07
14.563306600000942,0,0,0,0,1,64,8679013,3.2515387535095215,1.4698091745376587,0.8794825673103333,1.1855833530426025,-1.372955083847046,0.011365781538188457,0.006787141785025597,26.44,0.04,0.0,0.96,0.02,0.0,0.0,0.24
14.601044200011529,0,0,0,0,1,64,8679050,3.23886775970459,1.468786597251892,0.8508481979370117,0.7860280275344849,-1.182396650314331,0.015842784196138382,-0.002438694704324007,26.42,0.17,0.0,0.91,0.1,0.03,0.0,0.63
14.631983300001593,0,0,0,0,1,64,8679081,3.2204787731170654,1.4623948335647583,0.8324403762817383,0.517662525177002,-1.0151735544204712,0.00751787144690752,-0.005819541402161121,26.44,0.11,0.0,0.9,0.04,0.16,0.0,0.71
14.662946099997498,0,0,0,0,1,64,8679112,3.201262950897217,1.4493560791015625,0.8122428059577942,0.2611246109008789,-0.9080901741981506,0.005138578359037638,-0.0003181416541337967,26.42,0.01,0.01,0.8300000000000001,0.0,0.23,0.0,0.55
14.693361799989361,0,0,0,0,1,64,8679143,3.189138412475586,1.4378513097763062,0.7848870158195496,0.07744165509939194,-0.8911135792732239,-0.0024887670297175646,0.0005247394437901676,26.42,0.14,0.07,0.86,0.0,0.24,0.0,0.25
14.724452499998733,0,0,0,0,1,64,8679174,3.1854357719421387,1.433760643005371,0.7511393427848816,0.012680496089160442,-0.9384837746620178,0.012475877068936825,0.002005587564781308,26.42,0.12,0.0,1.02,0.0,0.1,0.0,0.07
14.755676700006006,0,0,0,0,1,64,8679205,3.1883912086486816,1.433760643005371,0.7186701893806458,0.01195621583610773,-0.9763491153717041,0.015120621770620346,-0.003153934609144926,26.42,0.08,0.0,1.08,0.01,0.0,0.0,0.0
14.786145499994745,0,0,0,0,1,64,8679235,3.194349765777588,1.4335049390792847,0.6977055668830872,0.009082239121198654,-0.9155906438827515,0.012801826931536198,0.004888954572379589,26.42,0.11,0.0,1.1400000000000001,0.13,0.03,0.0,0.02
14.817337200016482,0,0,0,0,1,64,8679267,3.196352243423462,1.423022747039795,0.6897802352905273,-0.06939153373241425,-0.7380579113960266,0.004193989094346762,0.016225919127464294,26.44,0.0,0.01,1.25,0.0,0.01,0.0,0.06
14.84238170000026,0,0,0,0,1,64,8679292,3.196873188018799,1.4064044952392578,0.6900358200073242,-0.20139996707439423,-0.5623918175697327,0.00487207155674696,0.030940888449549675,26.400000000000002,0.0,0.07,0.92,0.0,0.0,0.0,0.0
14.879438800009666,0,0,0,0,1,64,8679329,3.2118282318115234,1.3767476081848145,0.6910584568977356,-0.3943920135498047,-0.3736100494861603,0.002042115665972233,0.0348944216966629,26.400000000000002,0.11,0.12,0.96,0.0,0.0,0.0,0.0
14.91072929999791,0,0,0,0,1,64,8679360,3.2294397354125977,1.3455567359924316,0.7092103958129883,-0.5526881814002991,-0.13568170368671417,0.0006437503034248948,0.015666814520955086,26.42,0.0,0.28,1.07,0.0,0.0,0.04,0.0
14.942259200004628,0,0,0,0,1,64,8679391,3.2488343715667725,1.30234956741333,0.76545649766922,-0.7775744795799255,0.364923894405365,0.0020270515233278275,0.0032972414046525955,26.400000000000002,0.08,0.16,1.01,0.0,0.0,0.13,0.0
14.973126700002467,0,0,0,0,1,64,8679422,3.262634038925171,1.2588868141174316,0.8539161682128906,-0.9616208076477051,1.0382410287857056,0.0058385105803608894,0.0016362008173018694,26.400000000000002,0.06,0.12,1.16,0.05,0.0,0.13,0.0
