Time,PowerKeyState,FuncKeyState ,UpKeyState ,DownKeyState ,DeviceError ,Battery ,DeviceMs ,BackIncl ,HipAngle_L ,HipAngle_R ,HipSpeed_L ,HipSpeed_R ,HipTor_L ,HipTor_R ,Voltage ,Current ,AccX ,AccY ,AccZ ,GyroX ,GyroY ,GyroZ
0.0005493999924510717,0,0,0,0,1,64,8603480,3.2370758056640625,0.8562167286872864,1.5224758386611938,-1.3595327138900757,1.285455346107483,-0.000467651872895658,-0.016978519037365913,26.400000000000002,0.03,0.0,0.99,0.0,0.0,0.23,0.14
0.02346140000736341,0,0,0,0,1,64,8603502,3.233325719833374,0.8314173817634583,1.5201749801635742,-1.319724440574646,0.9954846501350403,0.004774108063429594,-0.003490785602480173,26.44,0.0,0.0,0.98,0.0,0.0,0.2,0.35000000000000003
0.04901149999932386,0,0,0,0,1,64,8603528,3.2236952781677246,0.8076407313346863,1.512505054473877,-1.228170394897461,0.693390429019928,-0.0003688372962642461,-0.005117462947964668,26.42,0.11,0.0,0.92,0.0,0.0,0.19,0.55
0.07957610001903959,0,0,0,0,1,64,8603559,3.2070693969726562,0.785398006439209,1.4935860633850098,-1.0872310400009155,0.3412899374961853,-0.0009045829065144062,0.006873035337775946,26.42,0.0,0.0,0.9,0.0,0.0,0.2,0.64
0.11072200001217425,0,0,0,0,1,64,8603590,3.189943313598633,0.7636666297912598,1.467508316040039,-0.9740496873855591,0.015082716941833496,-0.0031331502832472324,-0.0010512946173548698,26.42,0.0,0.07,0.75,0.0,0.0,0.22,0.49
0.14173070000833832,0,0,0,0,1,64,8603621,3.179718017578125,0.7340097427368164,1.4480777978897095,-0.9529619216918945,-0.17744435369968414,0.0013879238395020366,0.004378220997750759,26.42,0.01,0.08,0.78,0.03,0.0,0.28,0.08
0.17291220001061447,0,0,0,0,1,64,8603652,3.181157350540161,0.6938705444335938,1.4450098276138306,-1.0417214632034302,-0.17054465413093567,0.00034813297679647803,-0.011925403960049152,26.44,0.16,0.04,0.92,0.07,0.0,0.3,0.0
0.20501360000343993,0,0,0,0,1,64,8603684,3.1934518814086914,0.6519417762756348,1.4447542428970337,-1.1259362697601318,-0.11518047004938126,0.005257003474980593,-0.021423745900392532,26.42,0.08,0.0,1.1500000000000001,0.0,0.04,0.41000000000000003,0.0
0.22939980000955984,0,0,0,0,1,64,8603708,3.20452618598938,0.6273981928825378,1.443731665611267,-1.1158088445663452,-0.09574197232723236,0.00041535310447216034,-0.020708734169602394,26.44,0.0,0.0,1.29,0.0,0.07,0.42,0.0
0.2677607999939937,0,0,0,0,1,64,8603747,3.2108781337738037,0.6048997044563293,1.4378513097763062,-0.9460077285766602,-0.10186789184808731,0.007798522245138884,0.0046746083535254,26.44,0.09,0.0,1.21,0.0,0.14,0.28,0.0
0.2988113000174053,0,0,0,0,1,64,8603778,3.2152910232543945,0.6048997044563293,1.4194434881210327,-0.693926215171814,-0.2267746776342392,0.004520168527960777,0.0012522703036665916,26.42,0.0,0.14,0.92,0.09,0.0,0.1,0.0
0.32946070001344196,0,0,0,0,1,64,8603808,3.2317147254943848,0.6133365631103516,1.3946441411972046,-0.4382795989513397,-0.38349586725234985,-0.002621804131194949,-0.0001159074017778039,26.42,0.01,0.17,1.03,0.31,0.23,0.0,0.0
0.36049330001696944,0,0,0,0,1,64,8603839,3.2566328048706055,0.6442718505859375,1.3591070175170898,-0.06673353910446167,-0.5832574367523193,-0.0024742905516177416,-0.003846961772069335,26.44,0.01,0.11,0.99,0.0,0.33,0.0,0.0
0.39214240000001155,0,0,0,0,1,64,8603871,3.2760071754455566,0.7127895355224609,1.304395079612732,0.5310803055763245,-0.8864889740943909,-0.003380713751539588,-0.004311167635023594,26.42,0.03,0.16,1.03,0.0,0.22,0.0,0.0
0.4166134000115562,0,0,0,0,1,64,8603896,3.2850780487060547,0.7833526730537415,1.2560745477676392,1.0492675304412842,-1.1303510665893555,-0.0022338833659887314,-0.004570486024022102,26.42,0.0,0.15,1.1500000000000001,0.0,0.17,0.0,0.0
0.4551928000000771,0,0,0,0,1,64,8603934,3.289069890975952,0.9001910090446472,1.1972719430923462,1.7195899486541748,-1.289674162864685,-0.0034620279911905527,0.0018490711227059364,26.42,0.0,0.1,1.11,0.0,0.07,0.0,0.0
0.4853919000015594,0,0,0,0,1,64,8603964,3.2874841690063477,0.9947864413261414,1.1635242700576782,2.109161138534546,-1.2488512992858887,-0.006869262084364891,-0.003947878256440163,26.42,0.09,0.01,1.07,0.03,0.0,0.0,0.07
0.5163185000128578,0,0,0,0,1,64,8603995,3.281635284423828,1.093983769416809,1.1343787908554077,2.4046525955200195,-1.1577194929122925,-0.011336863040924072,-0.0032801609486341476,26.42,0.0,0.07,1.05,0.0,0.0,0.0,0.18
0.5474629999953322,0,0,0,0,1,64,8604026,3.2737441062927246,1.1862783432006836,1.1024208068847656,2.564948797225952,-1.114358901977539,-0.008382612839341164,0.0026955176144838333,26.44,0.0,0.08,0.9500000000000001,0.0,0.0,0.0,0.2
0.5782148000143934,0,0,0,0,1,64,8604057,3.2667908668518066,1.2640000581741333,1.0661166906356812,2.5603883266448975,-1.1239019632339478,-0.007759468629956245,-0.004922796506434679,26.39,0.0,0.07,0.93,0.0,0.0,0.0,0.11
0.6090046000026632,0,0,0,0,1,64,8604088,3.262688159942627,1.3248480558395386,1.0262333154678345,2.4059791564941406,-1.1632527112960815,-0.0038694720715284348,0.0036028586328029633,26.44,0.0,0.07,0.85,0.04,0.0,0.0,0.01
0.6401412000122946,0,0,0,0,1,64,8604119,3.2611868381500244,1.3703560829162598,0.9855826497077942,2.150338888168335,-1.2057629823684692,-0.005257383454591036,0.0015731925377622247,26.44,0.0,0.03,0.92,0.04,0.0,0.0,0.03
0.671624000009615,0,0,0,0,1,64,8604151,3.258150577545166,1.4023140668869019,0.9446766972541809,1.8275226354599,-1.2284927368164062,-0.0012527763610705733,0.004698818549513817,26.42,0.0,0.0,0.92,0.0,0.0,0.0,0.13
0.6968316000129562,0,0,0,0,1,64,8604176,3.253843069076538,1.4171425104141235,0.9157867431640625,1.5490148067474365,-1.2166051864624023,-0.0001258904521819204,0.001259250333532691,26.42,0.08,0.0,0.96,0.0,0.0,0.0,0.21
0.7331405000004452,0,0,0,0,1,64,8604212,3.2434213161468506,1.4260907173156738,0.8797381520271301,1.1430307626724243,-1.1503733396530151,0.003065119730308652,0.006757940631359816,26.42,0.0,0.0,0.9500000000000001,0.01,0.0,0.0,0.41000000000000003
0.7537636000197381,0,0,0,0,1,64,8604233,3.2348198890686035,1.4260907173156738,0.862097442150116,0.915561318397522,-1.0907166004180908,0.005135750398039818,0.006297719664871693,26.42,0.14,0.0,0.93,0.03,0.02,0.0,0.56
0.7794562000199221,0,0,0,0,1,64,8604258,3.220968246459961,1.4258350133895874,0.8447122573852539,0.6994417905807495,-1.0015883445739746,0.008620647713541985,0.002461320022121072,26.42,0.08,0.0,0.89,0.05,0.12,0.0,0.67
0.8106595000135712,0,0,0,0,1,64,8604290,3.2009193897247314,1.4207216501235962,0.8306506276130676,0.4623505771160126,-0.8479160666465759,-0.0004387849767226726,-0.0061159455217421055,26.44,0.09,0.0,0.89,0.03,0.21,0.0,0.6
0.835717800015118,0,0,0,0,1,64,8604315,3.1876585483551025,1.408961296081543,0.8240035176277161,0.25509682297706604,-0.7152523994445801,-0.005256411153823137,-0.0007138109067454934,26.400000000000002,0.03,0.02,0.88,0.0,0.22,0.0,0.49
0.8720754999958444,0,0,0,0,1,64,8604351,3.1761319637298584,1.3933658599853516,0.8099419474601746,0.029088307172060013,-0.6041385531425476,-0.008259277790784836,0.007432478480041027,26.42,0.0,0.0,0.88,0.0,0.16,0.0,0.18
0.8931600000069011,0,0,0,0,1,64,8604372,3.174379348754883,1.3897863626480103,0.7953691482543945,-0.018745649605989456,-0.6119731068611145,-0.0051589906215667725,0.004554204177111387,26.44,0.06,0.03,0.9400000000000001,0.0,0.11,0.0,0.05
0.9194141000043601,0,0,0,0,1,64,8604398,3.176544427871704,1.3885082006454468,0.7726151347160339,-0.025403643026947975,-0.668374240398407,-0.011577588506042957,8.767331019043922e-05,26.42,0.03,0.0,1.02,0.0,0.08,0.0,0.0
0.9508204000012483,0,0,0,0,1,64,8604430,3.185350179672241,1.3887637853622437,0.7450034022331238,-0.015203461050987244,-0.7307915091514587,-0.010466477833688259,-0.0012866072356700897,26.42,0.03,0.0,1.06,0.05,0.08,0.0,0.0
0.9757328999985475,0,0,0,0,1,64,8604455,3.19354510307312,1.3885082006454468,0.7281296849250793,-0.011087855324149132,-0.7280634641647339,-0.00985643733292818,-0.00042223610216751695,26.42,0.11,0.0,1.1500000000000001,0.03,0.09,0.0,0.0
1.0120220000098925,0,0,0,0,1,64,8604491,3.1980581283569336,1.3818608522415161,0.7189257740974426,-0.053033001720905304,-0.5940892100334167,-0.0005245935171842575,-0.0011493561323732138,26.42,0.01,0.0,1.17,0.0,0.0,0.0,0.0
1.0327258000033908,0,0,0,0,1,64,8604512,3.200422525405884,1.3675438165664673,0.7202040553092957,-0.16197192668914795,-0.46421554684638977,-0.005980535410344601,-0.013224977999925613,26.400000000000002,0.09,0.05,0.89,0.0,0.0,0.0,0.0
1.0587997999973595,0,0,0,0,1,64,8604538,3.2111992835998535,1.343255639076233,0.7253172993659973,-0.34136834740638733,-0.3096003830432892,-0.0035055591724812984,-0.01384962722659111,26.42,0.04,0.09,0.88,0.0,0.06,0.0,0.0
1.0898252000042703,0,0,0,0,1,64,8604569,3.2299563884735107,1.3100194931030273,0.7406571507453918,-0.5430896878242493,-0.09489230811595917,-0.0019876323640346527,-0.007728933356702328,26.44,0.0,0.17,0.92,0.0,0.0,0.13,0.0
1.1211781000019982,0,0,0,0,1,64,8604600,3.2498934268951416,1.267579436302185,0.7782395482063293,-0.7606073617935181,0.24142952263355255,-0.002689333399757743,0.0032541591208428144,26.44,0.08,0.25,0.99,0.0,0.0,0.28,0.0
1.1529155000171158,0,0,0,0,1,64,8604632,3.2709624767303467,1.2167023420333862,0.8480358123779297,-0.9963967800140381,0.7639855146408081,0.002411989029496908,0.0031268871389329433,26.44,0.11,0.15,1.25,0.07,0.0,0.28,0.0
1.1777867999917362,0,0,0,0,1,64,8604657,3.281187057495117,1.1824434995651245,0.9203885197639465,-1.0973984003067017,1.2400033473968506,-0.0002913745993282646,-0.0025738507974892855,26.42,0.04,0.0,1.35,0.03,0.0,0.22,0.0
1.2142944000079297,0,0,0,0,1,64,8604693,3.2828164100646973,1.1522750854492188,1.042851448059082,-1.0302222967147827,1.9144585132598877,-0.00538261141628027,-0.002193884924054146,26.42,0.12,0.0,1.17,0.0,0.09,0.24,0.09
1.23501830000896,0,0,0,0,1,64,8604714,3.2785449028015137,1.1420484781265259,1.1152042150497437,-0.9233749508857727,2.223724603652954,-0.006586901843547821,-0.0016769460635259748,26.44,0.17,0.05,1.07,0.0,0.22,0.34,0.23
1.2615742000052705,0,0,0,0,1,64,8604740,3.2691071033477783,1.12824285030365,1.204941749572754,-0.819393515586853,2.5123956203460693,-0.003123554168269038,-0.00011618974531302229,26.42,0.0,0.08,1.0,0.0,0.36,0.44,0.3
1.292886000010185,0,0,0,0,1,64,8604772,3.256190061569214,1.101142406463623,1.3125762939453125,-0.8125623464584351,2.760420799255371,-0.0012907441705465317,-0.0015557094011455774,26.42,0.08,0.07,0.96,0.0,0.4,0.43,0.3
1.3178882999927737,0,0,0,0,1,64,8604797,3.2473039627075195,1.0712298154830933,1.383906364440918,-0.8871539235115051,2.7953457832336426,0.001507916604168713,0.00038006974500603974,26.42,0.0,0.07,0.9,0.0,0.35000000000000003,0.44,0.23
1.3556057999958284,0,0,0,0,1,64,8604835,3.2381162643432617,1.013449788093567,1.4690423011779785,-1.0911865234375,2.6243884563446045,-0.002104412764310837,-0.003574408357962966,26.42,0.08,0.1,0.84,0.0,0.22,0.46,0.1
1.3869928999920376,0,0,0,0,1,64,8604866,3.2347402572631836,0.9625727534294128,1.5132721662521362,-1.2441155910491943,2.3089685440063477,-0.001828719861805439,-0.0009587256936356425,26.42,0.0,0.04,0.86,0.0,0.13,0.47000000000000003,0.0
1.4178157999995165,0,0,0,0,1,64,8604897,3.2342593669891357,0.9155306816101074,1.5327024459838867,-1.3247008323669434,1.8581852912902832,-0.00021707205451093614,-0.005188583396375179,26.42,0.12,0.0,0.92,0.0,0.1,0.4,0.01
1.4483885999943595,0,0,0,0,1,64,8604927,3.2330853939056396,0.8759029507637024,1.5342365503311157,-1.330067753791809,1.3704302310943604,-0.0006771316984668374,-0.00828233640640974,26.400000000000002,0.09,0.0,1.03,0.0,0.04,0.32,0.18
1.4798205000115559,0,0,0,0,1,64,8604959,3.226094961166382,0.8418996930122375,1.5283561944961548,-1.2610435485839844,0.9278505444526672,-0.0033655206207185984,-0.008258103393018246,26.42,0.16,0.0,1.0,0.0,0.0,0.22,0.44
1.504763200005982,0,0,0,0,1,64,8604984,3.2154719829559326,0.8227249979972839,1.515317440032959,-1.1536988019943237,0.6028590798377991,-0.0024979151785373688,-0.01004850585013628,26.42,0.0,0.0,0.9500000000000001,0.0,0.0,0.2,0.61
1.5417283000133466,0,0,0,0,1,64,8605021,3.1946871280670166,0.8012492060661316,1.4787575006484985,-0.9661414623260498,0.10145102441310883,-0.0020357738249003887,-0.008106839843094349,26.42,0.03,0.0,0.8200000000000001,0.0,0.0,0.18,0.63
1.5668660000083037,0,0,0,0,1,64,8605046,3.1814122200012207,0.7843753695487976,1.4488449096679688,-0.8892279863357544,-0.19964881241321564,-0.0021357503719627857,0.001052098348736763,26.400000000000002,0.01,0.1,0.73,0.0,0.0,0.18,0.38
1.6039851999958046,0,0,0,0,1,64,8605083,3.174786329269409,0.744236171245575,1.4181652069091797,-0.9327901005744934,-0.42131683230400085,-0.010393441654741764,-0.007313690613955259,26.42,0.12,0.17,0.77,0.1,0.0,0.14,0.0
1.6288362999912351,0,0,0,0,1,64,8605108,3.182636260986328,0.7053753733634949,1.4168869256973267,-1.0668290853500366,-0.3562993109226227,-0.006997242104262114,0.021521342918276787,26.42,0.14,0.0,1.01,0.0,0.0,0.17,0.0
1.6663679000048432,0,0,0,0,1,64,8605145,3.203658103942871,0.6452944874763489,1.4248126745224,-1.2550100088119507,-0.16161394119262695,-0.0029626621399074793,0.010111597366631031,26.400000000000002,0.0,0.0,1.17,0.0,0.0,0.3,0.0
1.6909212000027765,0,0,0,0,1,64,8605170,3.2146658897399902,0.6158931851387024,1.4237899780273438,-1.2539353370666504,-0.1177615150809288,0.0026842118240892887,0.027576813474297523,26.400000000000002,0.0,0.0,1.42,0.0,0.07,0.38,0.0
1.7287099999957718,0,0,0,0,1,64,8605208,3.2185275554656982,0.5982524752616882,1.410239815711975,-1.017871379852295,-0.1795436441898346,-0.0009469619253650308,0.005549556575715542,26.44,0.0,0.03,1.07,0.0,0.07,0.26,0.01
1.7593321000167634,0,0,0,0,1,64,8605238,3.2224676609039307,0.6036214828491211,1.3902978897094727,-0.6966838836669922,-0.3104601502418518,-0.0059235673397779465,1.4216057024896145e-05,26.42,0.01,0.12,0.91,0.08,0.0,0.04,0.0
1.7904166000080295,0,0,0,0,1,64,8605269,3.236640453338623,0.6169158816337585,1.3701006174087524,-0.38964036107063293,-0.40817344188690186,-0.004732200875878334,-0.0010820451425388455,26.42,0.06,0.15,1.03,0.22,0.18,0.0,0.0
1.8217270000022836,0,0,0,0,1,64,8605301,3.2551469802856445,0.6542428135871887,1.3412107229232788,0.025138620287179947,-0.5319278836250305,0.0006052006501704454,0.0016553127206861973,26.44,0.0,0.14,0.9500000000000001,0.0,0.26,0.0,0.0
1.8469295999966562,0,0,0,0,1,64,8605326,3.2660160064697266,0.7089548110961914,1.3049064874649048,0.49554768204689026,-0.7243267297744751,0.0025877493899315596,0.004645202308893204,26.44,0.0,0.16,1.09,0.0,0.16,0.0,0.0
1.8843746999918949,0,0,0,0,1,64,8605363,3.273289680480957,0.819145679473877,1.241246223449707,1.278715968132019,-1.048766851425171,-0.0019770865328609943,-0.0032594441436231136,26.42,0.0,0.17,1.1400000000000001,0.0,0.05,0.0,0.0
1.9091557000065222,0,0,0,0,1,64,8605388,3.27352237701416,0.9004465937614441,1.2067314386367798,1.74051034450531,-1.1406923532485962,-0.005832495167851448,-0.0009726524585857987,26.44,0.0,0.08,1.1400000000000001,0.0,0.01,0.0,0.0
1.9464807000185829,0,0,0,0,1,64,8605425,3.2690930366516113,1.0234206914901733,1.1722170114517212,2.252776861190796,-1.0858827829360962,-0.004739441908895969,0.004613762255758047,26.44,0.0,0.01,1.03,0.0,0.0,0.0,0.13
1.97108930000104,0,0,0,0,1,64,8605450,3.2632620334625244,1.1054887771606445,1.1540647745132446,2.483186960220337,-0.9989789724349976,0.001433265977539122,0.006504865363240242,26.400000000000002,0.0,0.04,0.98,0.01,0.0,0.0,0.23
2.0099119000078645,0,0,0,0,1,64,8605489,3.251582145690918,1.2243722677230835,1.1185277700424194,2.6768903732299805,-0.9548648595809937,-0.010982731357216835,0.0003410584758967161,26.44,0.0,0.05,1.0,0.0,0.0,0.0,0.22
2.041302400000859,0,0,0,0,1,64,8605520,3.243941068649292,1.3061844110488892,1.0801782608032227,2.6755330562591553,-1.022156000137329,-0.00835425965487957,0.01185151468962431,26.44,0.0,0.09,0.84,0.0,0.0,0.0,0.16
2.071820300014224,0,0,0,0,1,64,8605551,3.2395832538604736,1.3701003789901733,1.0339031219482422,2.5172770023345947,-1.1457617282867432,0.0021784473210573196,0.002956456271931529,26.400000000000002,0.0,0.11,0.88,0.04,0.0,0.0,0.02
2.104164499993203,0,0,0,0,1,64,8605583,3.238159418106079,1.4166311025619507,0.9814920425415039,2.2241904735565186,-1.2860050201416016,-0.005256190896034241,0.0003368046600371599,26.42,0.0,0.1,0.9,0.02,0.0,0.0,0.0
2.128998700005468,0,0,0,0,1,64,8605608,3.2385244369506836,1.4388738870620728,0.9413528442382812,1.925754189491272,-1.3635196685791016,-0.007837921380996704,-0.002116650342941284,26.400000000000002,0.12,0.0,0.96,0.01,0.0,0.0,0.0
2.1656570000050124,0,0,0,0,1,64,8605645,3.238528251647949,1.4514013528823853,0.8920100331306458,1.422165036201477,-1.3644037246704102,0.003827757202088833,-0.005272273905575275,26.44,0.0,0.0,1.04,0.05,0.0,0.0,0.12
2.1911109999928158,0,0,0,0,1,64,8605670,3.234218120574951,1.4511457681655884,0.8687445521354675,1.0888091325759888,-1.269919514656067,0.011910510249435902,-0.00024423899594694376,26.42,0.0,0.0,1.01,0.02,0.0,0.0,0.38
2.2280383000033908,0,0,0,0,1,64,8605707,3.215358257293701,1.4480777978897095,0.8480358123779297,0.7128689289093018,-1.048867106437683,0.010720876976847649,-0.00038953794864937663,26.44,0.0,0.0,0.85,0.03,0.0,0.0,0.67
2.2531048000091687,0,0,0,0,1,64,8605732,3.19948148727417,1.4383624792099,0.8413887023925781,0.4660630226135254,-0.8725222945213318,0.0016056741587817669,-0.0018270883010700345,26.42,0.0,0.03,0.8,0.0,0.17,0.0,0.63
2.290922000014689,0,0,0,0,1,64,8605770,3.1787707805633545,1.4153528213500977,0.832951545715332,0.11513295024633408,-0.650007963180542,-0.001544556231237948,0.005218388978391886,26.42,0.11,0.09,0.78,0.0,0.3,0.07,0.41000000000000003
2.3214557000028435,0,0,0,0,1,64,8605800,3.1701982021331787,1.4007800817489624,0.8168449401855469,-0.05706450715661049,-0.6027377843856812,-0.0004538232460618019,0.003726064693182707,26.44,0.08,0.1,0.86,0.0,0.32,0.08,0.11
2.352413799992064,0,0,0,0,1,64,8605831,3.1711018085479736,1.3928543329238892,0.7902558445930481,-0.11706456542015076,-0.6626196503639221,-0.006735553033649921,-0.0018293550238013268,26.42,0.0,0.02,0.99,0.0,0.24,0.0,0.0
2.3837439000199083,0,0,0,0,1,64,8605863,3.1784470081329346,1.3915761709213257,0.7582979202270508,-0.09542088210582733,-0.7607752084732056,0.011881600134074688,-0.0010808288352563977,26.44,0.0,0.0,1.07,0.07,0.13,0.0,0.0
2.4144175999972504,0,0,0,0,1,64,8605893,3.1885998249053955,1.3915761709213257,0.7273626327514648,-0.06532814353704453,-0.8363354206085205,0.0193491093814373,0.004011715762317181,26.42,0.09,0.0,1.08,0.11,0.09,0.0,0.0
2.446451199997682,0,0,0,0,1,64,8605925,3.1973111629486084,1.3915761709213257,0.7000067830085754,-0.04594415798783302,-0.852363109588623,0.025164099410176277,-0.0009824370499700308,26.42,0.01,0.0,1.27,0.09,0.1,0.0,0.06
2.476608299999498,0,0,0,0,1,64,8605956,3.1949946880340576,1.3869742155075073,0.6867122650146484,-0.06049231439828873,-0.7465388774871826,0.01603696309030056,-0.00020849824068136513,26.42,0.0,0.0,1.17,0.0,0.0,0.0,0.26
2.507926599995699,0,0,0,0,1,64,8605987,3.1921865940093994,1.3657541275024414,0.6900358200073242,-0.2182517945766449,-0.5194002389907837,0.010143381543457508,-0.010178828611969948,26.42,0.0,0.1,0.72,0.0,0.09,0.0,0.0
2.5390994000190403,0,0,0,0,1,64,8606018,3.2014381885528564,1.3325179815292358,0.705119788646698,-0.44642987847328186,-0.25003179907798767,0.007408471778035164,-0.01221413817256689,26.42,0.01,0.27,0.89,0.0,0.07,0.0,0.0
2.5703237999987323,0,0,0,0,1,64,8606049,3.214031457901001,1.2882881164550781,0.7442362904548645,-0.7084484100341797,0.14142228662967682,0.00630216533318162,-0.0023633381351828575,26.42,0.0,0.43,1.04,0.0,0.0,0.08,0.0
2.6018473000149243,0,0,0,0,1,64,8606081,3.235002279281616,1.235621452331543,0.8142881393432617,-0.9785992503166199,0.6984177231788635,0.0036070237401872873,0.007174484897404909,26.42,0.0,0.14,1.17,0.0,0.0,0.19,0.0
2.6262449999921955,0,0,0,0,1,64,8606105,3.248091459274292,1.2016181945800781,0.8817834854125977,-1.090824007987976,1.1575016975402832,-0.001553576672449708,0.0031344995368272066,26.42,0.09,0.07,1.1400000000000001,0.16,0.0,0.22,0.0
2.663423199992394,0,0,0,0,1,64,8606142,3.2539803981781006,1.1673593521118164,1.0045017004013062,-1.0509411096572876,1.8446658849716187,0.0001446446985937655,0.003366481978446245,26.42,0.01,0.01,1.2,0.0,0.12,0.27,0.01
2.695390800014138,0,0,0,0,1,64,8606174,3.2474496364593506,1.148951530456543,1.1126474142074585,-0.9136667251586914,2.291656017303467,0.004464791622012854,0.0006565048242919147,26.44,0.01,0.1,1.05,0.0,0.24,0.35000000000000003,0.2
2.7191272000200115,0,0,0,0,1,64,8606198,3.2404062747955322,1.1315664052963257,1.1924142837524414,-0.8584954142570496,2.519883394241333,0.0009239881183020771,-0.0016453329008072615,26.42,0.0,0.08,0.97,0.0,0.31,0.39,0.19
2.7576813000196125,0,0,0,0,1,64,8606237,3.2307956218719482,1.0898932218551636,1.3187122344970703,-0.9157370924949646,2.765371322631836,-0.002450448228046298,-0.004252463113516569,26.42,0.01,0.05,0.84,0.0,0.38,0.35000000000000003,0.12
2.7881813000130933,0,0,0,0,1,64,8606267,3.2260048389434814,1.05205500125885,1.3979679346084595,-1.0082049369812012,2.7435460090637207,0.004385520704090595,0.0006008418276906013,26.42,0.0,0.07,0.88,0.0,0.36,0.37,0.07
2.8195991000102367,0,0,0,0,1,64,8606299,3.222848653793335,1.0083365440368652,1.4631620645523071,-1.107399344444275,2.5529801845550537,0.005008833948522806,-0.004809032194316387,26.42,0.11,0.08,0.92,0.0,0.24,0.4,0.06
2.8443290000141133,0,0,0,0,1,64,8606323,3.221094846725464,0.9758672714233398,1.4992107152938843,-1.16166353225708,2.3264989852905273,0.0048809717409312725,-0.007358284201472998,26.46,0.0,0.0,0.9400000000000001,0.0,0.15,0.42,0.0
2.8815539999923203,0,0,0,0,1,64,8606360,3.220082998275757,0.9270356297492981,1.5327024459838867,-1.2140944004058838,1.8789888620376587,0.002190545666962862,-0.0027986224740743637,26.42,0.0,0.0,0.96,0.0,0.07,0.36,0.03
2.9132225000066683,0,0,0,0,1,64,8606392,3.218299627304077,0.8876633644104004,1.5413950681686401,-1.2188514471054077,1.4284332990646362,0.0006425027968361974,-0.012431894429028034,26.42,0.0,0.0,1.0,0.0,0.03,0.29,0.1
2.9374102000147104,0,0,0,0,1,64,8606416,3.215541362762451,0.861585795879364,1.5411394834518433,-1.1936219930648804,1.1050043106079102,0.0002586896298453212,-0.020480986684560776,26.44,0.08,0.0,1.03,0.0,0.0,0.25,0.3
2.975485800008755,0,0,0,0,1,64,8606454,3.201660394668579,0.8291165232658386,1.5355148315429688,-1.0868600606918335,0.6974380016326904,-0.000496173626743257,-0.004119134973734617,26.400000000000002,0.0,0.0,0.96,0.0,0.0,0.19,0.54
3.006167600018671,0,0,0,0,1,64,8606485,3.1858129501342773,0.8101973533630371,1.516595721244812,-0.9580157995223999,0.34776002168655396,0.0007472363067790866,0.0030791843309998512,26.44,0.09,0.04,0.89,0.0,0.0,0.19,0.53
3.0376115000108257,0,0,0,0,1,64,8606517,3.1713454723358154,0.7912783622741699,1.488472819328308,-0.846888542175293,-0.000513157807290554,-0.0035605488810688257,0.001688554068095982,26.400000000000002,0.01,0.1,0.84,0.0,0.0,0.17,0.32
3.062265999993542,0,0,0,0,1,64,8606541,3.1655893325805664,0.7744045257568359,1.4682754278182983,-0.8093948364257812,-0.1943957358598709,-0.0003381820861250162,-0.0071968804113566875,26.42,0.01,0.13,0.85,0.0,0.0,0.18,0.09
3.100337900017621,0,0,0,0,1,64,8606579,3.167799472808838,0.7416794896125793,1.4493564367294312,-0.8208467364311218,-0.30584102869033813,0.006043875589966774,0.00540004950016737,26.44,0.0,0.0,1.0,0.0,0.0,0.19,0.0
3.131105300009949,0,0,0,0,1,64,8606610,3.174619197845459,0.7130452990531921,1.4465440511703491,-0.8484839797019958,-0.24967212975025177,0.003151167882606387,-0.012471335008740425,26.44,0.09,0.0,1.04,0.0,0.0,0.22,0.0
3.1618184999970254,0,0,0,0,1,64,8606641,3.1807382106781006,0.6897799372673035,1.445521354675293,-0.8320180773735046,-0.18358688056468964,-0.00030911609064787626,-0.03250995650887489,26.44,0.03,0.0,1.22,0.0,0.01,0.27,0.0
3.1926108000043314,0,0,0,0,1,64,8606672,3.181276559829712,0.680064857006073,1.4352947473526,-0.7039950489997864,-0.20392818748950958,-0.014982194639742374,-0.011098315939307213,26.42,0.08,0.09,1.05,0.0,0.12,0.19,0.0
3.2242882999998983,0,0,0,0,1,64,8606703,3.186082124710083,0.6841554641723633,1.4125407934188843,-0.4768140912055969,-0.3424485921859741,-0.007739845663309097,-0.005076438654214144,26.42,0.01,0.13,0.86,0.0,0.0,0.08,0.0
3.25427989999298,0,0,0,0,1,64,8606733,3.2033114433288574,0.694126307964325,1.3900423049926758,-0.26652637124061584,-0.4578409790992737,0.0010875373845919967,0.0005099421250633895,26.42,0.03,0.21,0.9400000000000001,0.1,0.0,0.0,0.0
3.2867293000163045,0,0,0,0,1,64,8606766,3.22670841217041,0.7271067500114441,1.3619194030761719,0.07875744253396988,-0.5667216777801514,0.007146451156586409,0.004965398460626602,26.42,0.08,0.21,1.04,0.13,0.21,0.0,0.0
3.3105820000055246,0,0,0,0,1,64,8606790,3.240401268005371,0.7761940956115723,1.3332849740982056,0.48065608739852905,-0.6926184892654419,0.005365829914808273,0.0006977268494665623,26.42,0.0,0.22,1.17,0.0,0.16,0.0,0.0
3.348488100018585,0,0,0,0,1,64,8606827,3.2538111209869385,0.8874077796936035,1.2852201461791992,1.2753827571868896,-0.890529990196228,-0.003842501435428858,0.00370200932957232,26.42,0.0,0.03,1.23,0.0,0.07,0.0,0.0
3.3796566000091843,0,0,0,0,1,64,8606859,3.254551649093628,1.0016893148422241,1.2558189630508423,1.9283493757247925,-0.9125485420227051,-0.004242144990712404,0.00343667296692729,26.400000000000002,0.0,0.0,1.16,0.03,0.0,0.0,0.14
3.4044860000140034,0,0,0,0,1,64,8606883,3.2490897178649902,1.087336540222168,1.2409906387329102,2.3023996353149414,-0.8532021641731262,-0.0014120524283498526,0.006252073682844639,26.42,0.01,0.03,1.1300000000000001,0.0,0.0,0.0,0.27
3.442113299999619,0,0,0,0,1,64,8606921,3.2347490787506104,1.2138900756835938,1.2172136306762695,2.643842935562134,-0.7641621232032776,0.0010533368913456798,0.0026058058720082045,26.400000000000002,0.0,0.12,1.0,0.0,0.0,0.0,0.31
3.47310390000348,0,0,0,0,1,64,8606952,3.2246055603027344,1.3059288263320923,1.1842330694198608,2.74350643157959,-0.8294627666473389,-0.00015059401630423963,0.0016496861353516579,26.42,0.14,0.12,0.89,0.0,0.0,0.0,0.2
3.5042226999939885,0,0,0,0,1,64,8606983,3.219958543777466,1.382372260093689,1.1394920349121094,2.675809383392334,-0.9909896850585938,-0.0041529652662575245,0.004110375419259071,26.44,0.0,0.12,0.81,0.05,0.0,0.0,0.02
3.535205299995141,0,0,0,0,1,64,8607014,3.2199277877807617,1.4378513097763062,1.0891262292861938,2.4398012161254883,-1.167128086090088,-0.004187783692032099,-0.003057681955397129,26.400000000000002,0.12,0.03,0.85,0.01,0.0,0.0,0.0
3.56658770001377,0,0,0,0,1,64,8607045,3.222430467605591,1.471854567527771,1.035436987876892,2.079230785369873,-1.3197262287139893,0.0007396327564492822,-0.0021291393786668777,26.46,0.01,0.03,0.87,0.0,0.0,0.0,0.0
3.598361800017301,0,0,0,0,1,64,8607077,3.224247932434082,1.4879612922668457,0.9825146794319153,1.6395117044448853,-1.4194139242172241,0.0014572178479284048,-0.00023631122894585133,26.42,0.0,0.02,0.92,0.0,0.0,0.0,0.0
3.6226282000134233,0,0,0,0,1,64,8607102,3.2235636711120605,1.4894952774047852,0.9459549784660339,1.2801475524902344,-1.4345474243164062,-0.009524890221655369,-0.0015748317819088697,26.42,0.14,0.0,0.96,0.0,0.0,0.0,0.08
3.66029480000725,0,0,0,0,1,64,8607139,3.2165260314941406,1.4877055883407593,0.9073495864868164,0.8432813882827759,-1.3213878870010376,-0.002406378975138068,-0.0013178425142541528,26.44,0.0,0.0,0.93,0.02,0.07,0.0,0.42
3.690799200005131,0,0,0,0,1,64,8607170,3.202768564224243,1.4795242547988892,0.8904759287834167,0.5450487732887268,-1.1145435571670532,0.0034456318244338036,0.001249978318810463,26.44,0.0,0.0,0.91,0.07,0.24,0.01,0.56
3.7216342000174336,0,0,0,0,1,64,8607201,3.1870555877685547,1.4611164331436157,0.8805049061775208,0.23801882565021515,-0.8897625207901001,0.0038160565309226513,-0.002929984126240015,26.42,0.01,0.03,0.9500000000000001,0.03,0.25,0.0,0.51
3.7531806000042707,0,0,0,0,1,64,8607232,3.1744821071624756,1.4396408796310425,0.8672106862068176,-0.021697117015719414,-0.7507203221321106,0.0016576765337958932,0.004425107967108488,26.42,0.0,0.03,0.9,0.04,0.2,0.0,0.36
3.7838781000173185,0,0,0,0,1,64,8607263,3.166933536529541,1.4222558736801147,0.8434340357780457,-0.1793285608291626,-0.7424492835998535,-0.000779516703914851,0.009044889360666275,26.44,0.03,0.1,0.9,0.02,0.22,0.0,0.13
3.814950600004522,0,0,0,0,1,64,8607294,3.1668968200683594,1.4099839925765991,0.8109645843505859,-0.24144333600997925,-0.821679413318634,0.0053200433030724525,0.007349113468080759,26.42,0.01,0.0,0.99,0.0,0.15,0.0,0.0
3.845319100015331,0,0,0,0,1,64,8607324,3.1726560592651367,1.4015470743179321,0.7779839634895325,-0.25193896889686584,-0.899791955947876,0.0021006204187870026,0.00012450199574232101,26.42,0.03,0.0,1.02,0.02,0.12,0.0,0.0
3.8763958000054117,0,0,0,0,1,64,8607355,3.181093454360962,1.3948997259140015,0.7470486760139465,-0.24145974218845367,-0.9295016527175903,-0.004687445238232613,0.00694646080955863,26.42,0.0,0.0,1.07,0.05,0.1,0.0,0.0
3.908494100003736,0,0,0,0,1,64,8607387,3.1864230632781982,1.3885082006454468,0.7202040553092957,-0.22466158866882324,-0.9130919575691223,0.000576058286242187,0.004843531176447868,26.42,0.11,0.0,1.24,0.0,0.03,0.0,0.0
3.932598700019298,0,0,0,0,1,64,8607412,3.1873927116394043,1.3775147199630737,0.7074210047721863,-0.2624545693397522,-0.8293521404266357,4.165433347225189e-05,0.012932037003338337,26.44,0.0,0.03,1.02,0.0,0.0,0.0,0.0
3.9709693000186235,0,0,0,0,1,64,8607450,3.1959288120269775,1.3522039651870728,0.70793217420578,-0.3907169997692108,-0.5619286894798279,0.004672918003052473,0.019518811255693436,26.44,0.0,0.1,0.9,0.0,0.04,0.0,0.0
4.0018255000177305,0,0,0,0,1,64,8607481,3.2091429233551025,1.326637625694275,0.7227608561515808,-0.5034552216529846,-0.28887954354286194,0.008480138145387173,0.00464858440682292,26.42,0.06,0.35000000000000003,1.05,0.0,0.0,0.03,0.0
4.032760200003395,0,0,0,0,1,64,8607512,3.224482297897339,1.2826634645462036,0.7705698013305664,-0.7353811264038086,0.1806035339832306,0.0023331916891038418,0.006805752869695425,26.44,0.0,0.24,1.12,0.0,0.0,0.2,0.0
4.063916999992216,0,0,0,0,1,64,8607543,3.2418372631073,1.2276958227157593,0.8516149520874023,-1.0238157510757446,0.830793559551239,0.0016527522820979357,-0.0004060573410242796,26.44,0.0,0.1,1.25,0.05,0.0,0.2,0.0
4.095614099991508,0,0,0,0,1,64,8607575,3.250490188598633,1.1821876764297485,0.9556700587272644,-1.1596840620040894,1.513227939605713,0.011990507133305073,0.006668570917099714,26.42,0.0,0.01,1.21,0.01,0.0,0.21,0.0
4.120776800002204,0,0,0,0,1,64,8607600,3.2476158142089844,1.1584110260009766,1.0420843362808228,-1.1220225095748901,1.969477891921997,0.007581896148622036,0.0009738962398841977,26.44,0.0,0.09,1.12,0.0,0.14,0.28,0.16
4.15835650000372,0,0,0,0,1,64,8607637,3.2345685958862305,1.1284984350204468,1.1660810708999634,-1.0116437673568726,2.4156618118286133,0.010269172489643097,-0.003601652104407549,26.44,0.12,0.21,0.99,0.0,0.27,0.4,0.3
4.190039400011301,0,0,0,0,1,64,8607669,3.222877025604248,1.0927056074142456,1.273459792137146,-1.0283963680267334,2.67887020111084,0.006437468808144331,-0.007941474206745625,26.42,0.06,0.13,0.88,0.0,0.37,0.41000000000000003,0.27
4.214778499997919,0,0,0,0,1,64,8607694,3.215489387512207,1.0597249269485474,1.3486248254776,-1.0945947170257568,2.7732956409454346,-0.0002850897144526243,-0.008816893212497234,26.400000000000002,0.0,0.14,0.8200000000000001,0.0,0.36,0.33,0.15
4.251652900013141,0,0,0,0,1,64,8607731,3.21044659614563,1.0080809593200684,1.4378513097763062,-1.188266396522522,2.6667611598968506,0.0051760124042630196,-0.004886290058493614,26.42,0.0,0.02,0.86,0.0,0.23,0.28,0.07
4.282167500001378,0,0,0,0,1,64,8607761,3.207869529724121,0.9689643979072571,1.4905180931091309,-1.22116219997406,2.4309403896331787,0.002524890471249819,0.0014926432631909847,26.44,0.0,0.0,0.88,0.0,0.18,0.25,0.08
4.3132192000048235,0,0,0,0,1,64,8607792,3.2045576572418213,0.9295923113822937,1.527589201927185,-1.2330896854400635,2.096482515335083,0.008481142111122608,0.0013997701462358236,26.42,0.0,0.0,0.92,0.0,0.18,0.29,0.15
4.343528099998366,0,0,0,0,1,64,8607822,3.1993489265441895,0.8914983868598938,1.5449743270874023,-1.2413948774337769,1.6978141069412231,-1.3719312846660614e-05,0.0011700274189934134,26.44,0.0,0.01,0.93,0.0,0.13,0.27,0.17
4.373914399999194,0,0,0,0,1,64,8607853,3.193871259689331,0.8567280769348145,1.543440341949463,-1.2133421897888184,1.221564769744873,-0.0042052133940160275,0.023234998807311058,26.42,0.0,0.0,0.97,0.0,0.04,0.24,0.26
4.405571000010241,0,0,0,0,1,64,8607884,3.184492826461792,0.8319287300109863,1.5314241647720337,-1.107889175415039,0.7778286337852478,-0.004327183123677969,0.0023669633083045483,26.44,0.11,0.0,0.99,0.0,0.0,0.21,0.47000000000000003
4.436067300004652,0,0,0,0,1,64,8607915,3.170337438583374,0.8188899159431458,1.5073919296264648,-0.9260808825492859,0.3552979826927185,-0.005234616342931986,-0.0015947065548971295,26.42,0.12,0.0,1.03,0.0,0.0,0.2,0.59
4.466841699992074,0,0,0,0,1,64,8607946,3.15261173248291,0.8117313385009766,1.477479338645935,-0.7304905652999878,-0.014457655139267445,0.008853767067193985,0.0065063601359725,26.44,0.0,0.07,0.97,0.0,0.0,0.23,0.61
4.497350299992831,0,0,0,0,1,64,8607976,3.1365222930908203,0.7994594573974609,1.4565147161483765,-0.6299357414245605,-0.21470344066619873,-0.004555803257972002,0.006910319440066814,26.44,0.0,0.07,0.9,0.0,0.0,0.26,0.4
4.528417499997886,0,0,0,0,1,64,8608007,3.1267523765563965,0.7767054438591003,1.4516572952270508,-0.6468378901481628,-0.21367134153842926,0.0022179698571562767,0.020816534757614136,26.44,0.04,0.13,0.85,0.0,0.0,0.31,0.16
4.5586861000047065,0,0,0,0,1,64,8608038,3.127838611602783,0.7462814450263977,1.4567705392837524,-0.7359042167663574,-0.10579881072044373,-0.00163757533300668,0.0003941105678677559,26.42,0.0,0.0,0.97,0.03,0.0,0.34,0.0
4.589964300015708,0,0,0,0,1,64,8608069,3.135881185531616,0.7130452990531921,1.4613723754882812,-0.8317486047744751,-0.025904623791575432,-0.0013165203854441643,0.007926938124001026,26.400000000000002,0.0,0.0,1.0,0.0,0.0,0.41000000000000003,0.0
4.621062999998685,0,0,0,0,1,64,8608100,3.1436102390289307,0.6885016560554504,1.457537293434143,-0.836810290813446,-0.04010775312781334,0.0016512589063495398,0.01476716622710228,26.42,0.0,0.07,1.17,0.0,0.15,0.35000000000000003,0.0
4.651364899997134,0,0,0,0,1,64,8608130,3.149209976196289,0.6849223971366882,1.4421974420547485,-0.6676146984100342,-0.15306274592876434,0.009623156860470772,0.008234653621912003,26.42,0.01,0.13,0.9,0.0,0.03,0.23,0.0
4.682773500011535,0,0,0,0,1,64,8608162,3.1653101444244385,0.6997509002685547,1.41586434841156,-0.355644553899765,-0.3397340476512909,0.005154520273208618,-0.00338827446103096,26.44,0.03,0.2,0.9,0.15,0.0,0.0,0.0
4.7081100000068545,0,0,0,0,1,64,8608187,3.1828856468200684,0.7248058319091797,1.3920875787734985,-0.0559782013297081,-0.47779518365859985,0.0017832465237006545,-0.0038231187500059605,26.42,0.09,0.19,1.05,0.23,0.24,0.0,0.0
4.744504700007383,0,0,0,0,1,64,8608223,3.2066712379455566,0.7899999618530273,1.3483692407608032,0.5066846013069153,-0.7006688117980957,-0.004920653533190489,-0.0028891738038510084,26.44,0.03,0.17,1.07,0.0,0.37,0.0,0.0
4.764898900000844,0,0,0,0,1,64,8608244,3.2171590328216553,0.8429223895072937,1.32101309299469,0.8929407596588135,-0.8255309462547302,-0.004339237231761217,-0.0010950991418212652,26.400000000000002,0.11,0.15,1.27,0.0,0.26,0.0,0.0
4.791261900012614,0,0,0,0,1,64,8608270,3.2232611179351807,0.91680908203125,1.2908449172973633,1.3554885387420654,-0.9150188565254211,-0.002298895036801696,-0.0038551408797502518,26.42,0.11,0.11,1.25,0.0,0.1,0.0,0.0
4.822713500005193,0,0,0,0,1,64,8608302,3.223515510559082,1.014472484588623,1.2627216577529907,1.8370246887207031,-0.9107035398483276,-0.0034674732014536858,-0.005010709166526794,26.42,0.0,0.11,1.17,0.0,0.0,0.0,0.03
4.848476400016807,0,0,0,0,1,64,8608327,3.219926595687866,1.0921941995620728,1.2461036443710327,2.1317434310913086,-0.8516249060630798,-0.003161001019179821,-0.011580209247767925,26.42,0.09,0.09,1.05,0.02,0.0,0.0,0.16
4.885244800010696,0,0,0,0,1,64,8608364,3.2102839946746826,1.2041748762130737,1.2169580459594727,2.4155046939849854,-0.8179323673248291,-0.0010078491177409887,-0.007491405121982098,26.44,0.0,0.13,1.01,0.0,0.0,0.0,0.26
4.910013000015169,0,0,0,0,1,64,8608389,3.203314781188965,1.2719255685806274,1.1901134252548218,2.4916651248931885,-0.8657636642456055,0.0025704391300678253,-0.002357004676014185,26.44,0.17,0.14,0.92,0.0,0.0,0.0,0.21
4.94748120001168,0,0,0,0,1,64,8608426,3.1953253746032715,1.3560389280319214,1.13872492313385,2.428170680999756,-1.0248429775238037,0.0066738435998559,0.0020950427278876305,26.44,0.11,0.14,0.89,0.0,0.0,0.0,0.08
4.9719802000036,0,0,0,0,1,64,8608451,3.1926817893981934,1.4002686738967896,1.0978189706802368,2.283437490463257,-1.1633021831512451,0.005128136370331049,0.0005946970777586102,26.42,0.09,0.15,0.8300000000000001,0.01,0.0,0.0,0.0
5.009016800002428,0,0,0,0,1,64,8608488,3.193028211593628,1.4460325241088867,1.0308351516723633,1.9545836448669434,-1.3680806159973145,0.0022772380616515875,-0.0009292267495766282,26.42,0.0,0.12,0.88,0.0,0.0,0.0,0.0
5.033892800012836,0,0,0,0,1,64,8608513,3.1947457790374756,1.4626506567001343,0.9883950352668762,1.6674991846084595,-1.4520525932312012,0.004664079286158085,-0.0034831929951906204,26.400000000000002,0.0,0.1,0.92,0.0,0.0,0.0,0.0
5.07123520001187,0,0,0,0,1,64,8608550,3.1971728801727295,1.4685307741165161,0.9398190379142761,1.1864839792251587,-1.4190245866775513,0.001682536443695426,-0.002874295227229595,26.42,0.0,0.0,0.96,0.03,0.0,0.0,0.01
5.096030000015162,0,0,0,0,1,64,8608575,3.1960461139678955,1.4682750701904297,0.9180876612663269,0.9055585861206055,-1.3036978244781494,0.01700495555996895,-0.005613677203655243,26.400000000000002,0.01,0.0,0.96,0.01,0.0,0.0,0.26
5.131903100002091,0,0,0,0,1,64,8608611,3.1846747398376465,1.4657186269760132,0.90325927734375,0.6006332635879517,-1.0304046869277954,0.013517365790903568,0.0012578661553561687,26.42,0.0,0.0,0.9500000000000001,0.07,0.04,0.0,0.54
5.1532691000029445,0,0,0,0,1,64,8608632,3.1748828887939453,1.4590712785720825,0.8999354243278503,0.4260346293449402,-0.8588790893554688,0.010710536502301693,-0.015161962248384953,26.42,0.0,0.0,0.96,0.04,0.09,0.0,0.61
5.17867799999658,0,0,0,0,1,64,8608658,3.1603899002075195,1.4442428350448608,0.8991686701774597,0.1925589144229889,-0.6563083529472351,0.0014125549932941794,-0.025104587897658348,26.44,0.0,0.0,0.89,0.01,0.12,0.0,0.65
5.209339099994395,0,0,0,0,1,64,8608688,3.144357442855835,1.4196990728378296,0.8902203440666199,-0.07315877079963684,-0.5422964692115784,0.0004896845784969628,-0.00402022572234273,26.44,0.09,0.13,0.75,0.0,0.15,0.0,0.41000000000000003
5.240861600002972,0,0,0,0,1,64,8608720,3.1369569301605225,1.3977121114730835,0.8641427159309387,-0.25911611318588257,-0.601672887802124,-0.0048697395250201225,0.004658950492739677,26.42,0.01,0.17,0.72,0.07,0.24,0.0,0.0
5.266118400002597,0,0,0,0,1,64,8608745,3.141340970993042,1.3905534744262695,0.8298835754394531,-0.28053224086761475,-0.7636154890060425,-0.00406093243509531,0.0019769337959587574,26.44,0.14,0.05,0.92,0.0,0.21,0.0,0.0
5.30197830000543,0,0,0,0,1,64,8608781,3.162224292755127,1.3925987482070923,0.7680132985115051,-0.17528195679187775,-1.062932014465332,0.01567762903869152,-0.0008000208763405681,26.44,0.0,0.0,1.06,0.03,0.02,0.0,0.0
5.323451100004604,0,0,0,0,1,64,8608802,3.1760947704315186,1.3915761709213257,0.734521210193634,-0.1422852873802185,-1.180853247642517,0.012896757572889328,0.0027478032279759645,26.44,0.01,0.0,1.18,0.11,0.0,0.0,0.0
5.348350999993272,0,0,0,0,1,64,8608827,3.1862807273864746,1.3908090591430664,0.7040974497795105,-0.11439021676778793,-1.2093168497085571,0.014511690475046635,0.00032359507167711854,26.42,0.0,0.0,1.27,0.04,0.0,0.0,0.0
5.379098100005649,0,0,0,0,1,64,8608858,3.189910650253296,1.3757249116897583,0.6902914047241211,-0.19301223754882812,-1.0235223770141602,0.00518791051581502,0.013648970052599907,26.42,0.0,0.12,1.07,0.0,0.08,0.0,0.0
5.4099403000145685,0,0,0,0,1,64,8608889,3.1982247829437256,1.3463236093521118,0.6997509002685547,-0.39413508772850037,-0.6664876341819763,0.009086411446332932,0.006637155078351498,26.42,0.11,0.28,0.96,0.0,0.09,0.0,0.0
5.44108019999112,0,0,0,0,1,64,8608920,3.2113864421844482,1.309508204460144,0.731708824634552,-0.6111651659011841,-0.21679775416851044,0.0019148332066833973,-0.004836254753172398,26.44,0.08,0.38,1.16,0.0,0.0,0.02,0.0
5.472546600009082,0,0,0,0,1,64,8608951,3.229257345199585,1.267835021018982,0.7938349843025208,-0.8156412839889526,0.3734003007411957,-0.0024966453202068806,-0.002245328389108181,26.44,0.0,0.21,1.08,0.0,0.0,0.14,0.0
5.502975000010338,0,0,0,0,1,64,8608982,3.2428293228149414,1.2294855117797852,0.8822946548461914,-0.9397871494293213,1.046155571937561,-0.002784564159810543,0.002599372062832117,26.44,0.16,0.07,1.2,0.11,0.0,0.16,0.0
5.533714899996994,0,0,0,0,1,64,8609013,3.244717836380005,1.1998285055160522,0.9883950352668762,-0.9529926776885986,1.7046546936035156,0.0035765389911830425,-0.002600424224510789,26.42,0.0,0.07,1.18,0.04,0.08,0.2,0.07
5.56545890000416,0,0,0,0,1,64,8609044,3.237053632736206,1.1770744323730469,1.0975631475448608,-0.8936780691146851,2.219114303588867,-0.0044988300651311874,0.002573847770690918,26.44,0.09,0.22,1.03,0.0,0.18,0.23,0.22
5.596153199992841,0,0,0,0,1,64,8609075,3.2271571159362793,1.1512523889541626,1.1990617513656616,-0.8628730773925781,2.510648250579834,-0.0010764806065708399,0.0024458609987050295,26.42,0.06,0.14,0.96,0.0,0.23,0.25,0.19
5.627151299995603,0,0,0,0,1,64,8609106,3.2199206352233887,1.1149482727050781,1.2951911687850952,-0.9345870614051819,2.672437906265259,0.002724473597481847,0.0019467172678560019,26.42,0.0,0.13,0.88,0.0,0.24,0.26,0.12
5.65749529999448,0,0,0,0,1,64,8609136,3.2160866260528564,1.0709742307662964,1.3741912841796875,-1.070277214050293,2.6734588146209717,0.006172010209411383,0.004051077179610729,26.42,0.08,0.13,0.81,0.0,0.24,0.22,0.01
5.6884140000038315,0,0,0,0,1,64,8609167,3.2157487869262695,1.0218868255615234,1.4388738870620728,-1.2110819816589355,2.5177369117736816,0.0016124984249472618,-0.0025221961550414562,26.44,0.0,0.04,0.86,0.0,0.21,0.25,0.0
5.7203690000169445,0,0,0,0,1,64,8609199,3.215538501739502,0.9725437164306641,1.4894953966140747,-1.308012843132019,2.257530450820923,-0.0021322888787835836,-0.0041523585096001625,26.42,0.01,0.05,0.89,0.0,0.2,0.28,0.0
5.744382700009737,0,0,0,0,1,64,8609223,3.215535879135132,0.9380291104316711,1.5150617361068726,-1.3417325019836426,2.0015668869018555,0.002474471926689148,-0.001325191231444478,26.44,0.0,0.01,0.91,0.0,0.19,0.3,0.0
5.782039200013969,0,0,0,0,1,64,8609261,3.2138755321502686,0.8891973495483398,1.5332139730453491,-1.3268921375274658,1.5091843605041504,0.004811289254575968,-0.009477865882217884,26.44,0.0,0.0,0.9,0.0,0.19,0.28,0.11
5.812760200002231,0,0,0,0,1,64,8609292,3.2099056243896484,0.8564724922180176,1.5311685800552368,-1.2535746097564697,1.074941873550415,0.001830792287364602,-0.030348844826221466,26.42,0.0,0.0,0.98,0.0,0.11,0.2,0.31
5.844061400013743,0,0,0,0,1,64,8609323,3.1991806030273438,0.8288607597351074,1.5255438089370728,-1.152989387512207,0.7264359593391418,0.0008159519638866186,0.002124080201610923,26.44,0.04,0.0,0.97,0.0,0.0,0.1,0.53
5.87388510000892,0,0,0,0,1,64,8609353,3.1849992275238037,0.8035500645637512,1.513527750968933,-1.0650407075881958,0.42735031247138977,-0.0008134025847539306,-0.0021649273112416267,26.44,0.12,0.0,0.9400000000000001,0.0,0.0,0.0,0.5700000000000001
5.905325700005051,0,0,0,0,1,64,8609384,3.170423984527588,0.7764498591423035,1.4938416481018066,-1.0085833072662354,0.1368715465068817,-0.00220663845539093,-0.0005019445670768619,26.400000000000002,0.08,0.03,0.8300000000000001,0.0,0.0,0.0,0.43
5.936497799993958,0,0,0,0,1,64,8609415,3.1612558364868164,0.7439805865287781,1.4751782417297363,-1.0095587968826294,-0.07432223111391068,-0.004989965818822384,0.004441451746970415,26.42,0.0,0.13,0.8200000000000001,0.0,0.0,0.0,0.1
5.967337900015991,0,0,0,0,1,64,8609446,3.1617183685302734,0.7061424255371094,1.4644403457641602,-1.063732385635376,-0.15593454241752625,-0.0036804508417844772,0.009407767094671726,26.44,0.01,0.06,0.98,0.0,0.0,0.05,0.0
5.9987702000071295,0,0,0,0,1,64,8609478,3.171496868133545,0.6703494191169739,1.4608612060546875,-1.0886837244033813,-0.1471744030714035,0.0019385453779250383,-0.02140211872756481,26.44,0.06,0.0,1.08,0.0,0.0,0.19,0.0
6.023460399999749,0,0,0,0,1,64,8609502,3.180884838104248,0.6491295695304871,1.4608612060546875,-1.0495080947875977,-0.11349715292453766,0.005244359374046326,-0.014621036127209663,26.42,0.09,0.0,1.22,0.0,0.01,0.34,0.0
6.0614886000112165,0,0,0,0,1,64,8609540,3.186898708343506,0.6266310811042786,1.4593271017074585,-0.9073325991630554,-0.08023582398891449,-0.003633966902270913,-0.010844292119145393,26.44,0.14,0.08,1.24,0.0,0.16,0.39,0.11
6.092319200019119,0,0,0,0,1,64,8609571,3.1881344318389893,0.6222848892211914,1.4493564367294312,-0.706579327583313,-0.13556067645549774,0.0013335712719708681,0.004652228206396103,26.42,0.0,0.05,1.03,0.0,0.08,0.3,0.0
6.1226809000072535,0,0,0,0,1,64,8609602,3.198986053466797,0.6243302226066589,1.4319711923599243,-0.48790571093559265,-0.24996426701545715,0.0030989537481218576,0.007985684089362621,26.42,0.14,0.21,0.88,0.07,0.04,0.12,0.0
6.15394390001893,0,0,0,0,1,64,8609633,3.221803665161133,0.6409482955932617,1.4064048528671265,-0.2277844250202179,-0.39620882272720337,-0.0009054739493876696,0.00648903613910079,26.44,0.0,0.16,0.91,0.1,0.18,0.0,0.0
6.1852609000052325,0,0,0,0,1,64,8609664,3.243320941925049,0.6936149597167969,1.3619194030761719,0.26656973361968994,-0.6630657315254211,0.00012840807903558016,0.0021108021028339863,26.42,0.0,0.22,0.92,0.05,0.13,0.0,0.0
6.215316599991638,0,0,0,0,1,64,8609694,3.259114980697632,0.7777280807495117,1.3049064874649048,0.9296718239784241,-0.994586706161499,-0.0042600203305482864,0.008264024741947651,26.44,0.0,0.12,1.22,0.0,0.21,0.0,0.0
6.246562400017865,0,0,0,0,1,64,8609725,3.2669928073883057,0.8774369359016418,1.2547963857650757,1.571105718612671,-1.1911460161209106,-0.005022859200835228,0.0033591343089938164,26.42,0.01,0.0,1.19,0.0,0.18,0.0,0.0
6.277724700019462,0,0,0,0,1,64,8609757,3.267439365386963,0.9822589755058289,1.2266734838485718,2.0598323345184326,-1.124721884727478,0.0034157969057559967,-0.0015287656569853425,26.44,0.03,0.07,1.1,0.0,0.04,0.0,0.08
6.302359099994646,0,0,0,0,1,64,8609781,3.263461112976074,1.0620259046554565,1.2136344909667969,2.3345789909362793,-0.9922420382499695,0.0002310303971171379,0.003867104882374406,26.44,0.0,0.06,1.1,0.0,0.0,0.0,0.17
6.339756600005785,0,0,0,0,1,64,8609819,3.2523956298828125,1.1873010396957397,1.1875568628311157,2.6498148441314697,-0.8728273510932922,-0.004315583035349846,0.003221717430278659,26.44,0.0,0.1,1.02,0.0,0.0,0.0,0.28
6.370294499996817,0,0,0,0,1,64,8609849,3.2435998916625977,1.2767833471298218,1.1543207168579102,2.749189615249634,-0.9226124286651611,0.000645715743303299,0.004909124691039324,26.42,0.09,0.03,0.89,0.0,0.0,0.0,0.16
6.400157900003251,0,0,0,0,1,64,8609879,3.2391767501831055,1.3463236093521118,1.1144371032714844,2.6493828296661377,-1.0279908180236816,0.0023899611551314592,0.0009588388493284583,26.42,0.0,0.1,0.89,0.0,0.0,0.0,0.0
6.431456199992681,0,0,0,0,1,64,8609910,3.2386364936828613,1.3974565267562866,1.068161964416504,2.3816921710968018,-1.1531850099563599,0.0020520559046417475,0.009322109632194042,26.42,0.01,0.04,0.87,0.0,0.0,0.0,0.0
6.463023299991619,0,0,0,0,1,64,8609942,3.23960018157959,1.4335049390792847,1.0157508850097656,2.029892683029175,-1.2884783744812012,0.0014413230819627643,0.0028280182741582394,26.44,0.14,0.03,0.89,0.03,0.0,0.0,0.0
6.48790460001328,0,0,0,0,1,64,8609967,3.240417718887329,1.4511457681655884,0.9758675694465637,1.7281032800674438,-1.3629460334777832,-0.0025785653851926327,0.0008323523215949535,26.42,0.16,0.0,0.92,0.0,0.0,0.0,0.02
6.52541940001538,0,0,0,0,1,64,8610004,3.2363295555114746,1.4616279602050781,0.925501823425293,1.2701184749603271,-1.3705824613571167,0.007974035106599331,-0.004379484802484512,26.44,0.0,0.0,0.92,0.07,0.0,0.0,0.22
6.556805900007021,0,0,0,0,1,64,8610036,3.2280445098876953,1.460349678993225,0.8937994837760925,0.8943642377853394,-1.2717561721801758,0.013567274436354637,0.004213749431073666,26.44,0.03,0.0,0.9400000000000001,0.08,0.08,0.0,0.5
6.581609899993055,0,0,0,0,1,64,8610061,3.2153780460357666,1.460349678993225,0.8764145970344543,0.6840498447418213,-1.1435067653656006,0.023945998400449753,0.008818104863166809,26.44,0.0,0.0,0.91,0.1,0.17,0.0,0.67
6.618200600001728,0,0,0,0,1,64,8610097,3.1931350231170654,1.450890064239502,0.8592850565910339,0.39963728189468384,-0.9326066970825195,0.003809032728895545,-0.0022695036605000496,26.44,0.08,0.04,0.87,0.03,0.25,0.0,0.55
6.638509500015061,0,0,0,0,1,64,8610117,3.1839332580566406,1.4404077529907227,0.8490584492683411,0.22637012600898743,-0.8448590636253357,0.0031648813746869564,0.002848189789801836,26.42,0.0,0.02,0.88,0.01,0.23,0.0,0.41000000000000003
6.664529000001494,0,0,0,0,1,64,8610143,3.176064968109131,1.4278802871704102,0.8298835754394531,0.05168789625167847,-0.8047615885734558,-0.008238853886723518,0.0018559455638751388,26.42,0.0,0.0,0.89,0.0,0.18,0.0,0.21
6.6951037000108045,0,0,0,0,1,64,8610174,3.1734774112701416,1.4186763763427734,0.7986927032470703,-0.05075846239924431,-0.8548924922943115,-0.008351649157702923,-0.002506215125322342,26.44,0.0,0.0,0.97,0.0,0.14,0.0,0.02
6.726460200006841,0,0,0,0,1,64,8610205,3.1774346828460693,1.4125404357910156,0.7646894454956055,-0.09153475612401962,-0.9240736961364746,0.0017502454575151205,0.0019143088720738888,26.42,0.0,0.0,1.03,0.06,0.11,0.0,0.0
6.7576112000097055,0,0,0,0,1,64,8610237,3.185725450515747,1.4051262140274048,0.7363109588623047,-0.126627579331398,-0.9252305030822754,0.0080085638910532,-0.001144822221249342,26.42,0.0,0.0,1.08,0.06,0.1,0.0,0.0
6.782536999991862,0,0,0,0,1,64,8610261,3.191343069076538,1.3982234001159668,0.7209711074829102,-0.16035430133342743,-0.8678113222122192,0.004212386440485716,0.0013139646034687757,26.42,0.06,0.0,1.2,0.02,0.07,0.0,0.0
6.819687900017016,0,0,0,0,1,64,8610299,3.1939544677734375,1.378281593322754,0.7097218632698059,-0.2683030366897583,-0.6887995004653931,0.002972750924527645,-0.010271533392369747,26.44,0.01,0.07,1.06,0.0,0.0,0.0,0.0
6.849709800007986,0,0,0,0,1,64,8610329,3.200228691101074,1.3575729131698608,0.7107445597648621,-0.3835497498512268,-0.4927453100681305,0.0022150713484734297,-0.019304033368825912,26.42,0.08,0.07,0.9400000000000001,0.0,0.04,0.0,0.0
6.881445500010159,0,0,0,0,1,64,8610360,3.215022087097168,1.3368641138076782,0.7145795822143555,-0.4606199264526367,-0.33046454191207886,0.0040251389145851135,-0.02645746059715748,26.44,0.0,0.2,1.0,0.0,0.0,0.01,0.0
6.912943400006043,0,0,0,0,1,64,8610392,3.233499050140381,1.3031164407730103,0.7470486760139465,-0.6127451658248901,0.01580779440701008,0.00208834046497941,-0.012335561215877533,26.44,0.0,0.2,0.9500000000000001,0.0,0.0,0.18,0.0
6.937519700004486,0,0,0,0,1,64,8610416,3.2477610111236572,1.2657896280288696,0.7997153401374817,-0.8099773526191711,0.465606689453125,-0.0020539339166134596,-0.004011161625385284,26.44,0.0,0.14,1.07,0.0,0.0,0.2,0.0
6.975433600018732,0,0,0,0,1,64,8610454,3.26149320602417,1.2041748762130737,0.9201329350471497,-1.0865044593811035,1.3382728099822998,-0.005351564846932888,-0.0004854980215895921,26.44,0.11,0.08,1.25,0.03,0.0,0.12,0.0
7.00657970001339,0,0,0,0,1,64,8610485,3.260248899459839,1.1711941957473755,1.034414291381836,-1.1002577543258667,1.9923999309539795,0.00046466290950775146,-0.0035002250224351883,26.44,0.01,0.12,1.1400000000000001,0.0,0.01,0.18,0.1
7.0376811000169255,0,0,0,0,1,64,8610517,3.251830577850342,1.1512523889541626,1.147161841392517,-0.9662339687347412,2.4427802562713623,-0.004359277430921793,-0.001381153822876513,26.42,0.0,0.11,1.09,0.0,0.18,0.34,0.25
7.062737100000959,0,0,0,0,1,64,8610542,3.2431938648223877,1.1346343755722046,1.23434317111969,-0.8840560913085938,2.677935838699341,-0.0005269886460155249,0.003490749979391694,26.42,0.0,0.14,1.01,0.0,0.27,0.42,0.23
7.09983170000487,0,0,0,0,1,64,8610579,3.2327094078063965,1.0985857248306274,1.354505181312561,-0.8981795907020569,2.870986223220825,0.01328801829367876,0.006248729303479195,26.42,0.0,0.05,0.9400000000000001,0.0,0.27,0.38,0.18
7.131306399998721,0,0,0,0,1,64,8610610,3.2270121574401855,1.0597249269485474,1.435550332069397,-0.9909255504608154,2.8109967708587646,0.00625630933791399,-0.002831287682056427,26.42,0.0,0.0,0.91,0.0,0.22,0.33,0.09
7.162343400006648,0,0,0,0,1,64,8610641,3.222682237625122,1.0129384994506836,1.5004888772964478,-1.1278362274169922,2.618095636367798,-3.579807162168436e-05,0.00314417015761137,26.44,0.0,0.03,0.89,0.0,0.19,0.3,0.02
7.193372800014913,0,0,0,0,1,64,8610672,3.2212934494018555,0.9641068577766418,1.5436960458755493,-1.2527791261672974,2.293322801589966,0.0019514760933816433,-0.0016375259729102254,26.400000000000002,0.0,0.01,0.88,0.0,0.17,0.3,0.0
7.224444599996787,0,0,0,0,1,64,8610703,3.2208304405212402,0.917576014995575,1.5626150369644165,-1.3233232498168945,1.841762900352478,0.00795586034655571,0.0054807038977742195,26.44,0.0,0.01,0.89,0.0,0.14,0.27,0.0
7.255796700017527,0,0,0,0,1,64,8610735,3.2200987339019775,0.8753916621208191,1.5621038675308228,-1.3267829418182373,1.3155477046966553,-0.0015471167862415314,0.023697813972830772,26.44,0.0,0.0,1.0,0.0,0.04,0.22,0.15
7.280640400014818,0,0,0,0,1,64,8610760,3.21531343460083,0.8472685813903809,1.5577574968338013,-1.2867215871810913,0.9685844779014587,0.002789528341963887,0.0037802262231707573,26.42,0.03,0.0,0.9500000000000001,0.0,0.0,0.17,0.39
7.3188177999982145,0,0,0,0,1,64,8610798,3.199873208999634,0.81556636095047,1.5383270978927612,-1.1433522701263428,0.49209973216056824,0.005536716431379318,0.008419102057814598,26.44,0.14,0.0,0.87,0.0,0.0,0.13,0.56
7.348410400009016,0,0,0,0,1,64,8610827,3.1853513717651367,0.7951132655143738,1.513527750968933,-1.0236544609069824,0.14349913597106934,0.008946363814175129,0.001983050024136901,26.42,0.0,0.04,0.8200000000000001,0.0,0.0,0.15,0.49
7.378703700000187,0,0,0,0,1,64,8610858,3.174403190612793,0.7698025703430176,1.485660433769226,-0.9559835195541382,-0.15031172335147858,0.0026494264602661133,-0.0015685283578932285,26.42,0.11,0.11,0.81,0.02,0.0,0.13,0.2
7.409822899993742,0,0,0,0,1,64,8610889,3.1719493865966797,0.7381003499031067,1.4672527313232422,-0.966952383518219,-0.28583016991615295,0.005116582848131657,0.00682404637336731,26.44,0.0,0.05,0.96,0.0,0.0,0.11,0.0
7.440397700003814,0,0,0,0,1,64,8610919,3.1787941455841064,0.702307403087616,1.4611167907714844,-1.0244842767715454,-0.27415525913238525,0.0018010946223512292,-0.0033750059083104134,26.42,0.0,0.0,1.1,0.0,0.0,0.14,0.0
7.472480099997483,0,0,0,0,1,64,8610951,3.191364288330078,0.6683042645454407,1.460349678993225,-1.0435152053833008,-0.1979016661643982,-0.0034478148445487022,-0.002448936691507697,26.42,0.11,0.0,1.17,0.0,0.0,0.2,0.0
7.496858800004702,0,0,0,0,1,64,8610976,3.197758197784424,0.6498964428901672,1.4600940942764282,-0.9850649237632751,-0.1499631106853485,-0.0004756041744258255,0.00436742277815938,26.44,0.0,0.0,1.29,0.0,0.12,0.2,0.0
7.535452500014799,0,0,0,0,1,64,8611014,3.1997413635253906,0.6391585469245911,1.4542137384414673,-0.7654812335968018,-0.13761340081691742,-0.000984120648354292,0.016234448179602623,26.42,0.0,0.0,1.05,0.0,0.11,0.13,0.0
7.56561670001247,0,0,0,0,1,64,8611044,3.2076547145843506,0.6432492136955261,1.4350391626358032,-0.5255017876625061,-0.25861749053001404,0.007213008124381304,0.005584521684795618,26.44,0.03,0.14,0.88,0.08,0.05,0.0,0.0
7.597196400020039,0,0,0,0,1,64,8611076,3.2294938564300537,0.659611701965332,1.4035924673080444,-0.24331294000148773,-0.4578627347946167,0.005673876032233238,0.0049361735582351685,26.42,0.0,0.15,1.02,0.22,0.28,0.0,0.0
7.621764300012728,0,0,0,0,1,64,8611101,3.2474303245544434,0.6936149597167969,1.3654985427856445,0.09647491574287415,-0.6857306361198425,0.001619489397853613,0.0031541616190224886,26.42,0.0,0.18,0.92,0.06,0.28,0.0,0.0
7.659022700012429,0,0,0,0,1,64,8611138,3.2675282955169678,0.7813073992729187,1.2895663976669312,0.8033483028411865,-1.1161398887634277,0.00037335866363719106,0.00832695048302412,26.44,0.0,0.17,1.26,0.0,0.2,0.0,0.0
7.690291700011585,0,0,0,0,1,64,8611169,3.2754416465759277,0.8718123435974121,1.2305084466934204,1.3877819776535034,-1.3550746440887451,-0.0014896008651703596,0.00430721789598465,26.42,0.09,0.1,1.22,0.0,0.12,0.0,0.0
7.721960900002159,0,0,0,0,1,64,8611201,3.2765467166900635,0.969731330871582,1.189602255821228,1.8665447235107422,-1.3521531820297241,-0.006181247532367706,0.007693784311413765,26.42,0.0,0.1,1.08,0.0,0.0,0.0,0.01
7.746888900001068,0,0,0,0,1,64,8611226,3.2738165855407715,1.049242615699768,1.1663366556167603,2.162728786468506,-1.2530455589294434,-0.005123012233525515,0.0021057003177702427,26.44,0.0,0.08,1.03,0.0,0.0,0.0,0.12
7.783758600009605,0,0,0,0,1,64,8611263,3.2650022506713867,1.1658252477645874,1.1331005096435547,2.4800119400024414,-1.1293550729751587,-0.0027889693155884743,0.005441091023385525,26.42,0.0,0.03,0.99,0.0,0.0,0.0,0.24
7.814945999998599,0,0,0,0,1,64,8611294,3.256481409072876,1.2547961473464966,1.0996084213256836,2.595212459564209,-1.1075634956359863,0.0007407466182485223,0.00013979838695377111,26.42,0.0,0.03,0.89,0.0,0.0,0.0,0.18
7.846926900005201,0,0,0,0,1,64,8611326,3.2498385906219482,1.3304725885391235,1.0604921579360962,2.5403153896331787,-1.133868932723999,-0.0029899668879806995,0.006101311184465885,26.44,0.06,0.04,0.8300000000000001,0.0,0.0,0.0,0.07
7.871912300004624,0,0,0,0,1,64,8611351,3.2474374771118164,1.3762363195419312,1.0280227661132812,2.387118101119995,-1.1685538291931152,-0.0010310399811714888,0.0013562465319409966,26.42,0.0,0.08,0.85,0.04,0.0,0.0,0.01
7.90901329999906,0,0,0,0,1,64,8611388,3.2455854415893555,1.424045443534851,0.9804694056510925,2.0426831245422363,-1.208409070968628,3.4770171623677015e-05,-0.00018158939201384783,26.44,0.09,0.05,0.93,0.03,0.0,0.0,0.0
7.940534800000023,0,0,0,0,1,64,8611419,3.2434425354003906,1.4475663900375366,0.9439096450805664,1.691495656967163,-1.2030889987945557,-0.008448897860944271,-0.0006646835245192051,26.44,0.04,0.01,0.96,0.0,0.0,0.0,0.11
7.971943200012902,0,0,0,0,1,64,8611451,3.237931966781616,1.4567703008651733,0.9119517207145691,1.298002004623413,-1.1487946510314941,-0.01695181615650654,-0.0010742198210209608,26.44,0.04,0.0,0.97,0.0,0.07,0.0,0.24
7.9969304999976885,0,0,0,0,1,64,8611476,3.231689214706421,1.4570260047912598,0.8912429809570312,0.9989238977432251,-1.0787101984024048,-0.019408024847507477,-0.0005833407631143928,26.42,0.01,0.0,0.99,0.01,0.2,0.0,0.41000000000000003
8.034241000015754,0,0,0,0,1,64,8611513,3.214623212814331,1.4557476043701172,0.8651654124259949,0.6657467484474182,-0.9575942754745483,-0.012432669289410114,-0.0011335251620039344,26.44,0.0,0.0,0.93,0.05,0.35000000000000003,0.02,0.62
8.058872199995676,0,0,0,0,1,64,8611538,3.2002007961273193,1.4506343603134155,0.8503367304801941,0.47203007340431213,-0.8739520907402039,-0.01001174096018076,0.0004714069073088467,26.42,0.03,0.0,0.92,0.04,0.37,0.0,0.63
8.096227300004102,0,0,0,0,1,64,8611575,3.1819143295288086,1.4347833395004272,0.8278382420539856,0.18591146171092987,-0.7848072648048401,0.0005243385676294565,0.004724259488284588,26.400000000000002,0.01,0.03,0.88,0.04,0.33,0.0,0.4
8.120905399991898,0,0,0,0,1,64,8611600,3.1752121448516846,1.423022747039795,0.8086636662483215,0.030617084354162216,-0.7736591696739197,0.0039840880781412125,0.00036101113073527813,26.42,0.0,0.08,0.92,0.0,0.23,0.0,0.18
8.159315800003242,0,0,0,0,1,64,8611638,3.174281597137451,1.4140745401382446,0.7705698013305664,-0.06627492606639862,-0.8399452567100525,-0.002168593229725957,-9.394728112965822e-05,26.42,0.0,0.0,1.0,0.0,0.02,0.0,0.0
8.191415400011465,0,0,0,0,1,64,8611670,3.179694414138794,1.413307547569275,0.7393789291381836,-0.05631919577717781,-0.8860457539558411,-0.011072969064116478,0.007861790247261524,26.44,0.16,0.0,1.03,0.07,0.0,0.0,0.0
8.215921900002286,0,0,0,0,1,64,8611695,3.1847262382507324,1.412796139717102,0.7219937443733215,-0.045195531100034714,-0.8540834784507751,-0.018804514780640602,0.0036627312656491995,26.42,0.14,0.0,1.11,0.07,0.03,0.0,0.05
8.2527883000148,0,0,0,0,1,64,8611732,3.1842620372772217,1.4069160223007202,0.7112557291984558,-0.07036098837852478,-0.6833717823028564,-0.011121027171611786,-0.019349006935954094,26.42,0.0,0.02,1.11,0.0,0.0,0.0,0.19
8.277921000000788,0,0,0,0,1,64,8611757,3.182929754257202,1.3905534744262695,0.7130454182624817,-0.1891280859708786,-0.5101479291915894,-0.011538072489202023,-0.021650321781635284,26.400000000000002,0.0,0.14,0.79,0.0,0.0,0.0,0.0
8.314218799991067,0,0,0,0,1,64,8611793,3.1971187591552734,1.3555275201797485,0.7242946624755859,-0.4308130145072937,-0.2619747221469879,0.0003151323180645704,-0.002406542422249913,26.42,0.0,0.22,0.92,0.0,0.0,0.0,0.0
8.335041100013768,0,0,0,0,1,64,8611814,3.209211826324463,1.3284273147583008,0.7450034022331238,-0.5916144251823425,-0.03912307322025299,-0.0006985242362134159,-0.0009613368310965598,26.44,0.08,0.34,1.03,0.0,0.0,0.0,0.0
8.360190600011265,0,0,0,0,1,64,8611839,3.226102590560913,1.2893108129501343,0.7882105708122253,-0.8098806738853455,0.34140706062316895,0.0013119273353368044,-0.0018902751617133617,26.44,0.0,0.18,1.1,0.0,0.0,0.05,0.0
8.392204900010256,0,0,0,0,1,64,8611871,3.2472307682037354,1.2415016889572144,0.8707898259162903,-1.0176734924316406,0.9563015103340149,-0.00413132831454277,-0.006789106875658035,26.44,0.09,0.11,1.1400000000000001,0.04,0.0,0.12,0.0
8.417141700017964,0,0,0,0,1,64,8611896,3.254973888397217,1.2151683568954468,0.9497900009155273,-1.0419189929962158,1.4537547826766968,0.0006422242731787264,-0.0036599338054656982,26.44,0.04,0.05,1.22,0.04,0.0,0.15,0.0
8.454051600012463,0,0,0,0,1,64,8611933,3.2519915103912354,1.194970965385437,1.0768543481826782,-0.8908065557479858,2.0917093753814697,-0.001256703631952405,-0.010987268760800362,26.44,0.0,0.07,1.09,0.0,0.14,0.25,0.15
8.479119900002843,0,0,0,0,1,64,8611958,3.244872570037842,1.1832103729248047,1.1596895456314087,-0.7811790108680725,2.380014657974243,0.0008515319786965847,-0.009190745651721954,26.44,0.01,0.13,1.0,0.0,0.24,0.34,0.21
8.51662480001687,0,0,0,0,1,64,8611995,3.234440326690674,1.150229811668396,1.2816410064697266,-0.7943859100341797,2.674497604370117,0.004645886830985546,-0.007839172147214413,26.44,0.09,0.14,0.87,0.0,0.34,0.37,0.14
8.54114089999348,0,0,0,0,1,64,8612020,3.2303338050842285,1.1154595613479614,1.354760766029358,-0.918056309223175,2.7459192276000977,0.008834957145154476,-0.011414973996579647,26.42,0.03,0.14,0.89,0.0,0.37,0.32,0.0
8.578889600001276,0,0,0,0,1,64,8612058,3.2298436164855957,1.0530776977539062,1.4419418573379517,-1.1553820371627808,2.6025946140289307,0.0026375213637948036,-0.003379335394129157,26.42,0.14,0.07,0.92,0.0,0.24,0.33,0.0
8.610031499993056,0,0,0,0,1,64,8612089,3.231706142425537,1.0011779069900513,1.4900068044662476,-1.3033421039581299,2.324260950088501,0.008405460976064205,-0.006176003720611334,26.42,0.0,0.08,0.91,0.0,0.09,0.35000000000000003,0.0
8.641319999995176,0,0,0,0,1,64,8612120,3.235307455062866,0.9541358947753906,1.519152283668518,-1.3688796758651733,1.9501591920852661,-0.002204285468906164,0.0027815913781523705,26.42,0.0,0.0,0.96,0.0,0.03,0.33,0.0
8.672538700018777,0,0,0,0,1,64,8612151,3.237215757369995,0.9127184748649597,1.5314241647720337,-1.3610870838165283,1.5264737606048584,-0.0004920099163427949,0.005615252070128918,26.42,0.0,0.0,1.0,0.0,0.02,0.27,0.02
8.703181999997469,0,0,0,0,1,64,8612182,3.2350029945373535,0.8769256472587585,1.5324468612670898,-1.307320475578308,1.1079037189483643,-0.006619552616029978,-0.022724302485585213,26.400000000000002,0.0,0.0,1.01,0.0,0.02,0.23,0.24
8.734026599995559,0,0,0,0,1,64,8612213,3.2259955406188965,0.8482912182807922,1.5298901796340942,-1.2063478231430054,0.7801176905632019,0.00029429810820147395,-0.025941725820302963,26.42,0.0,0.0,0.9400000000000001,0.0,0.0,0.14,0.47000000000000003
8.765268799994374,0,0,0,0,1,64,8612244,3.2119224071502686,0.8270711898803711,1.5158287286758423,-1.062049150466919,0.449129194021225,0.0006980319158174098,-0.009169825352728367,26.44,0.03,0.0,0.9,0.0,0.0,0.1,0.56
8.796414200012805,0,0,0,0,1,64,8612275,3.1965219974517822,0.8066180348396301,1.491540789604187,-0.9435884952545166,0.11373283714056015,-0.0031375286635011435,-0.0073329610750079155,26.42,0.0,0.01,0.8200000000000001,0.0,0.0,0.09,0.47000000000000003
8.82732060001581,0,0,0,0,1,64,8612306,3.185558795928955,0.7790064811706543,1.466230034828186,-0.9175130128860474,-0.1487898826599121,0.0011787043185904622,-0.0010926713002845645,26.44,0.0,0.1,0.81,0.0,0.0,0.11,0.21
8.858609000017168,0,0,0,0,1,64,8612337,3.182251214981079,0.7416794896125793,1.4503787755966187,-0.9869792461395264,-0.26104238629341125,0.0004986322019249201,0.006285642273724079,26.44,0.0,0.09,0.89,0.03,0.0,0.14,0.0
8.89021579999826,0,0,0,0,1,64,8612369,3.1877944469451904,0.6987282633781433,1.4462881088256836,-1.0913474559783936,-0.2336360663175583,0.00897652842104435,-0.015497327782213688,26.42,0.11,0.0,1.07,0.0,0.0,0.2,0.0
8.915181000018492,0,0,0,0,1,64,8612394,3.1956098079681396,0.6675373911857605,1.4460325241088867,-1.1330838203430176,-0.17304907739162445,0.0016682196874171495,-0.03180461376905441,26.42,0.09,0.0,1.09,0.0,0.0,0.3,0.0
8.952259600016987,0,0,0,0,1,64,8612431,3.2037014961242676,0.6314888000488281,1.4450098276138306,-1.0913898944854736,-0.12216059863567352,0.009777246043086052,-0.04877554252743721,26.42,0.04,0.0,1.3,0.0,0.15,0.44,0.05
8.977422500000102,0,0,0,0,1,64,8612456,3.2024922370910645,0.6158931851387024,1.443731665611267,-0.9934820532798767,-0.09954307228326797,0.0005678386660292745,-0.03345330432057381,26.42,0.08,0.0,1.23,0.0,0.22,0.39,0.16
9.014088299998548,0,0,0,0,1,64,8612493,3.202442169189453,0.6133365631103516,1.4258352518081665,-0.7082532048225403,-0.2067568451166153,-0.00888071395456791,-0.0056288233026862144,26.42,0.09,0.09,0.85,0.08,0.01,0.27,0.0
9.03924090001965,0,0,0,0,1,64,8612518,3.2143235206604004,0.6197280883789062,1.4081945419311523,-0.4892192482948303,-0.3232448697090149,-0.004030254669487476,-0.0052959551103413105,26.42,0.14,0.17,0.89,0.21,0.11,0.02,0.0
9.076670800015563,0,0,0,0,1,64,8612556,3.243736743927002,0.6445274353027344,1.3772592544555664,-0.12793347239494324,-0.4803008437156677,0.0007438976317644119,-0.006896724924445152,26.42,0.16,0.15,0.98,0.0,0.28,0.0,0.0
9.107706900016638,0,0,0,0,1,64,8612587,3.2628815174102783,0.6900356411933899,1.3396764993667603,0.2904094159603119,-0.6664947271347046,-0.003955978434532881,-0.0004292471567168832,26.44,0.01,0.25,0.97,0.0,0.15,0.0,0.0
9.13920170001802,0,0,0,0,1,64,8612618,3.278566837310791,0.7616212964057922,1.2880325317382812,0.828668475151062,-0.9339861869812012,0.0029805393423885107,-0.0005491196643561125,26.42,0.0,0.15,1.22,0.0,0.17,0.0,0.0
9.170461300003808,0,0,0,0,1,64,8612649,3.2878339290618896,0.8495696187019348,1.237155556678772,1.3796861171722412,-1.1406606435775757,-0.005788970738649368,0.004757697228342295,26.44,0.06,0.07,1.28,0.0,0.12,0.0,0.0
9.201563600014197,0,0,0,0,1,64,8612680,3.2907161712646484,0.9449319839477539,1.1970163583755493,1.849319338798523,-1.194313406944275,-0.014735632576048374,0.005017176736146212,26.400000000000002,0.0,0.05,1.11,0.0,0.0,0.0,0.0
9.232999400002882,0,0,0,0,1,64,8612712,3.2872259616851807,1.0477088689804077,1.161734938621521,2.232581615447998,-1.1652350425720215,-0.0038458332419395447,0.000588767696171999,26.44,0.0,0.04,1.0,0.0,0.0,0.0,0.11
9.257264899992151,0,0,0,0,1,64,8612736,3.281993865966797,1.125174880027771,1.1341232061386108,2.4508516788482666,-1.1553065776824951,-0.008410918526351452,-0.003383614355698228,26.44,0.12,0.11,0.93,0.0,0.0,0.0,0.15
9.295488400006434,0,0,0,0,1,64,8612774,3.274024248123169,1.239456295967102,1.0875924825668335,2.6430351734161377,-1.1727569103240967,-0.009838593192398548,-0.0007898048497736454,26.42,0.0,0.0,0.78,0.0,0.0,0.0,0.16
9.326514600019436,0,0,0,0,1,64,8612805,3.268425703048706,1.3174337148666382,1.0494985580444336,2.6182005405426025,-1.187957525253296,-0.004541156813502312,0.0007729126373305917,26.44,0.0,0.05,0.9,0.0,0.0,0.0,0.1
9.35729210000136,0,0,0,0,1,64,8612836,3.264484405517578,1.3772588968276978,1.0116602182388306,2.43760347366333,-1.1951227188110352,0.00011202867608517408,-0.0007356517598964274,26.42,0.0,0.0,0.99,0.0,0.0,0.0,0.14
9.388186700001825,0,0,0,0,1,64,8612867,3.2588226795196533,1.4204660654067993,0.9725440144538879,2.1517841815948486,-1.210991621017456,-0.002699760254472494,0.0016173982294276357,26.400000000000002,0.11,0.01,0.96,0.0,0.0,0.0,0.18
9.420000800018897,0,0,0,0,1,64,8612899,3.252211332321167,1.4488447904586792,0.9301039576530457,1.796568751335144,-1.2411216497421265,-0.007994269952178001,-0.0035884049721062183,26.44,0.03,0.0,0.92,0.0,0.0,0.01,0.21
9.44424360000994,0,0,0,0,1,64,8612923,3.247347831726074,1.4565147161483765,0.9009580612182617,1.4852854013442993,-1.2399803400039673,-0.009227893315255642,-0.006160357501357794,26.46,0.0,0.0,0.91,0.02,0.0,0.0,0.24
9.481460200011497,0,0,0,0,1,64,8612960,3.2393593788146973,1.450890064239502,0.8682333827018738,0.9607737064361572,-1.1368803977966309,-0.002421637997031212,0.003512660041451454,26.44,0.01,0.0,0.97,0.04,0.0,0.0,0.39
9.512122100015404,0,0,0,0,1,64,8612991,3.228581666946411,1.43682861328125,0.8475246429443359,0.5717782378196716,-1.0059603452682495,-0.004517084453254938,-0.0032432633452117443,26.44,0.0,0.0,0.92,0.11,0.0,0.0,0.44
9.543946000019787,0,0,0,0,1,64,8613023,3.217068910598755,1.4171425104141235,0.8247702717781067,0.23334936797618866,-0.9140282869338989,0.004324359353631735,0.00244613247923553,26.44,0.0,0.01,0.81,0.11,0.12,0.0,0.31
9.56837120000273,0,0,0,0,1,64,8613047,3.212071657180786,1.4041036367416382,0.8045730590820312,0.05221514403820038,-0.8912388682365417,0.004821155685931444,-0.0034773957449942827,26.42,0.01,0.0,0.85,0.09,0.22,0.0,0.15
9.606406500010053,0,0,0,0,1,64,8613085,3.2106809616088867,1.3908090591430664,0.7677574157714844,-0.08456382900476456,-0.9129696488380432,-0.0038828286342322826,-0.001543190679512918,26.44,0.2,0.0,1.01,0.0,0.28,0.0,0.0
9.637793200003216,0,0,0,0,1,64,8613117,3.2139334678649902,1.3859515190124512,0.7352883219718933,-0.10526832938194275,-0.9409207105636597,-0.007142098620533943,-0.009387372061610222,26.400000000000002,0.11,0.0,1.04,0.02,0.19,0.0,0.0
9.662496700009797,0,0,0,0,1,64,8613141,3.217883825302124,1.3833948373794556,0.7140681147575378,-0.1039506122469902,-0.9353763461112976,-0.001412103301845491,-0.0006655605975538492,26.44,0.0,0.0,1.04,0.05,0.11,0.0,0.0
9.69978729999275,0,0,0,0,1,64,8613179,3.221219062805176,1.3775147199630737,0.6943820118904114,-0.11342193186283112,-0.8124924302101135,-0.0035158477257937193,-0.0016812263056635857,26.400000000000002,0.0,0.0,1.11,0.09,0.04,0.0,0.09
9.7314871000126,0,0,0,0,1,64,8613210,3.2196896076202393,1.3608964681625366,0.6951491236686707,-0.2151634395122528,-0.5905181169509888,-0.00153121177572757,-0.0254136361181736,26.42,0.0,0.0,1.0,0.0,0.0,0.0,0.05
9.762259300012374,0,0,0,0,1,64,8613241,3.224987745285034,1.3312395811080933,0.7033303380012512,-0.4124065041542053,-0.35621750354766846,0.00016475388838443905,-0.008654977194964886,26.400000000000002,0.01,0.09,0.87,0.0,0.04,0.0,0.0
9.793211400014115,0,0,0,0,1,64,8613272,3.2386791706085205,1.2962136268615723,0.7255728840827942,-0.6090893149375916,-0.07454697787761688,0.0013848262606188655,-0.002333720214664936,26.400000000000002,0.06,0.32,1.03,0.0,0.0,0.0,0.0
9.824174000008497,0,0,0,0,1,64,8613303,3.256014823913574,1.257608413696289,0.7700583338737488,-0.7847304344177246,0.32266363501548767,-0.002364631975069642,-0.0049840426072478294,26.44,0.08,0.17,1.06,0.0,0.0,0.01,0.0
9.855498899996746,0,0,0,0,1,64,8613334,3.2745344638824463,1.2177249193191528,0.8411328196525574,-0.9259474277496338,0.8440222144126892,-5.80913620069623e-05,-0.005568947643041611,26.42,0.0,0.01,1.21,0.06,0.0,0.03,0.0
9.886597500008065,0,0,0,0,1,64,8613365,3.2820522785186768,1.1819320917129517,0.9382848739624023,-0.9948379397392273,1.455024003982544,-0.0003906515194103122,-0.003235003212466836,26.42,0.0,0.0,1.32,0.11,0.0,0.0,0.0
9.917767900013132,0,0,0,0,1,64,8613397,3.277214527130127,1.156110167503357,1.0546118021011353,-0.950778603553772,2.076443672180176,0.0030807857401669025,-0.00015914607502054423,26.42,0.0,0.09,1.18,0.0,0.13,0.03,0.2
9.942414999997709,0,0,0,0,1,64,8613421,3.2695693969726562,1.1405147314071655,1.13872492313385,-0.8817373514175415,2.4106709957122803,-0.003416119609028101,-0.007466134149581194,26.44,0.0,0.03,1.05,0.0,0.26,0.13,0.25
9.980320800008485,0,0,0,0,1,64,8613459,3.2569499015808105,1.110857605934143,1.2668123245239258,-0.8338389992713928,2.724246025085449,-0.004078282508999109,-0.0045076110400259495,26.400000000000002,0.11,0.11,0.92,0.0,0.41000000000000003,0.26,0.24
10.011431099992478,0,0,0,0,1,64,8613490,3.24845290184021,1.0781326293945312,1.3552719354629517,-0.8860199451446533,2.7808444499969482,-0.004232760518789291,0.003056084271520376,26.44,0.03,0.09,0.91,0.0,0.37,0.27,0.19
10.04207550000865,0,0,0,0,1,64,8613521,3.2425081729888916,1.035436987876892,1.4266020059585571,-1.0119482278823853,2.6522445678710938,0.0036403178237378597,-0.0012079915031790733,26.42,0.11,0.0,0.9,0.0,0.25,0.27,0.1
10.073628000012832,0,0,0,0,1,64,8613553,3.2382140159606934,0.9825145602226257,1.4851490259170532,-1.189751148223877,2.420853853225708,0.007695164531469345,-0.0024562650360167027,26.44,0.0,0.07,0.84,0.0,0.15,0.26,0.04
10.098805799992988,0,0,0,0,1,64,8613578,3.23720121383667,0.9393075108528137,1.5176182985305786,-1.3161698579788208,2.172138214111328,0.004172289744019508,-0.008199705742299557,26.42,0.0,0.04,0.85,0.0,0.11,0.23,0.0
10.13543560000835,0,0,0,0,1,64,8613614,3.236727714538574,0.8807604908943176,1.5406280755996704,-1.416809320449829,1.7025970220565796,-0.0004935492179356515,-0.004325173795223236,26.42,0.08,0.0,0.9,0.0,0.09,0.18,0.01
10.155456300009973,0,0,0,0,1,64,8613634,3.2367281913757324,0.8528931736946106,1.5419063568115234,-1.42164146900177,1.3990339040756226,-0.0070237061008811,-0.02031642571091652,26.42,0.03,0.0,0.97,0.0,0.07,0.13,0.05
10.182270499994047,0,0,0,0,1,64,8613661,3.233854055404663,0.8204239010810852,1.5385828018188477,-1.3723646402359009,1.0210634469985962,0.0010796994902193546,-0.02254297025501728,26.44,0.0,0.0,0.96,0.0,0.01,0.08,0.3
10.212958999996772,0,0,0,0,1,64,8613692,3.2237305641174316,0.7933236956596375,1.529378890991211,-1.2420778274536133,0.6572838425636292,-0.0036439476534724236,-0.0062133693136274815,26.42,0.0,0.0,0.9500000000000001,0.0,0.0,0.04,0.53
10.243975699995644,0,0,0,0,1,64,8613723,3.208073377609253,0.7744045257568359,1.5104597806930542,-1.0680071115493774,0.3149738907814026,-0.004100020043551922,0.001772939576767385,26.42,0.08,0.0,0.92,0.0,0.0,0.07,0.61
10.275610900018364,0,0,0,0,1,64,8613754,3.1918296813964844,0.757530689239502,1.4848934412002563,-0.9191421866416931,0.0018886402249336243,0.002277239691466093,0.0022866250947117805,26.42,0.01,0.05,0.86,0.0,0.0,0.08,0.43
10.3066131999949,0,0,0,0,1,64,8613785,3.182258367538452,0.7352879643440247,1.4598385095596313,-0.8526734113693237,-0.22615505754947662,0.006006708834320307,0.0014798566699028015,26.44,0.03,0.08,0.92,0.0,0.0,0.13,0.14
10.337648500018986,0,0,0,0,1,64,8613817,3.1817686557769775,0.7033300399780273,1.4457769393920898,-0.8842805624008179,-0.29980260133743286,0.0003503870975691825,-0.010103828273713589,26.42,0.0,0.0,1.01,0.0,0.0,0.14,0.0
10.36263049999252,0,0,0,0,1,64,8613841,3.187001943588257,0.6752071380615234,1.4450098276138306,-0.9477254748344421,-0.24992752075195312,0.009567800909280777,-0.018579378724098206,26.42,0.08,0.0,1.08,0.0,0.0,0.2,0.0
10.400202299992088,0,0,0,0,1,64,8613879,3.197690725326538,0.6348123550415039,1.4434760808944702,-0.9962334632873535,-0.1714158058166504,-5.642959149554372e-05,-0.014344276860356331,26.42,0.12,0.0,1.3900000000000001,0.0,0.07,0.2,0.0
10.431471999996575,0,0,0,0,1,64,8613910,3.202061891555786,0.6174271702766418,1.4360618591308594,-0.895013689994812,-0.1731986105442047,-0.006953658536076546,0.002278727013617754,26.42,0.01,0.0,1.1400000000000001,0.0,0.01,0.15,0.0
10.462975500005996,0,0,0,0,1,64,8613942,3.210038900375366,0.6210064888000488,1.4173980951309204,-0.6233088374137878,-0.2829807996749878,-0.005521966144442558,0.00575742544606328,26.44,0.04,0.03,0.93,0.0,0.0,0.05,0.0
10.487597900006222,0,0,0,0,1,64,8613966,3.220137119293213,0.6343010067939758,1.3989906311035156,-0.3744037449359894,-0.3843008279800415,-0.00856904685497284,0.006899626459926367,26.44,0.03,0.1,0.97,0.11,0.0,0.0,0.0
10.524098499998217,0,0,0,0,1,64,8614003,3.2360739707946777,0.6864563822746277,1.3562946319580078,0.1733720600605011,-0.6163145899772644,-0.005525596905499697,0.0033280914649367332,26.42,0.11,0.14,0.89,0.07,0.15,0.0,0.0
10.555303800007096,0,0,0,0,1,64,8614034,3.246244192123413,0.7613657116889954,1.304395079612732,0.7778816223144531,-0.8984464406967163,-0.004235174972563982,0.0025073643773794174,26.42,0.0,0.22,1.0,0.0,0.26,0.0,0.0
10.586711400013883,0,0,0,0,1,64,8614066,3.2531464099884033,0.8536602854728699,1.2514728307724,1.3779630661010742,-1.1263720989227295,-0.0019610796589404345,0.0006878804415464401,26.44,0.03,0.11,1.1500000000000001,0.0,0.29,0.0,0.0
10.611583000019891,0,0,0,0,1,64,8614090,3.255218744277954,0.9260129928588867,1.2213042974472046,1.7413382530212402,-1.171535849571228,0.002336626872420311,0.0013557537458837032,26.400000000000002,0.0,0.11,1.17,0.0,0.18,0.0,0.0
10.648509599996032,0,0,0,0,1,64,8614127,3.25262451171875,1.041317105293274,1.1862783432006836,2.1743457317352295,-1.0982643365859985,-0.005461241118609905,0.003258289536461234,26.44,0.0,0.09,1.11,0.02,0.0,0.0,0.12
10.679636699991534,0,0,0,0,1,64,8614158,3.2447280883789062,1.1394920349121094,1.1566215753555298,2.4513180255889893,-1.0470432043075562,-0.0005770459538325667,0.004825646989047527,26.42,0.03,0.04,1.02,0.0,0.0,0.0,0.2
10.711496900010388,0,0,0,0,1,64,8614190,3.2363123893737793,1.2343430519104004,1.1185277700424194,2.604475975036621,-1.077829122543335,-0.0019143987447023392,-0.0013140158262103796,26.42,0.0,0.11,0.85,0.0,0.0,0.0,0.12
10.735658899997361,0,0,0,0,1,64,8614215,3.2328412532806396,1.2949353456497192,1.0875924825668335,2.5768375396728516,-1.1141008138656616,-0.008874647319316864,-0.000609629089012742,26.42,0.0,0.15,0.8,0.0,0.0,0.0,0.02
10.772927800018806,0,0,0,0,1,64,8614252,3.2331759929656982,1.3606408834457397,1.0433626174926758,2.3293545246124268,-1.142516016960144,0.0002448547165840864,0.0056397938169538975,26.44,0.03,0.06,0.89,0.0,0.0,0.0,0.0
10.804658000008203,0,0,0,0,1,64,8614284,3.235421657562256,1.4007800817489624,1.0055246353149414,2.0239813327789307,-1.1534374952316284,-0.005364628043025732,-0.0008080864790827036,26.42,0.12,0.0,0.93,0.0,0.0,0.0,0.0
10.829891000001226,0,0,0,0,1,64,8614309,3.235671281814575,1.4253238439559937,0.9761231541633606,1.7832566499710083,-1.1574687957763672,-0.007763145491480827,0.0001965109258890152,26.44,0.08,0.0,0.96,0.0,0.0,0.0,0.05
10.866407800000161,0,0,0,0,1,64,8614345,3.2312779426574707,1.4488447904586792,0.9367510676383972,1.4340227842330933,-1.1406753063201904,-0.00047359877498820424,0.00665836688131094,26.42,0.0,0.0,0.99,0.0,0.0,0.0,0.22
10.886691299994709,0,0,0,0,1,64,8614366,3.226283073425293,1.4552364349365234,0.915019690990448,1.2174385786056519,-1.1192690134048462,0.000896252749953419,0.0029828662518411875,26.42,0.09,0.0,0.92,0.0,0.0,0.05,0.32
10.912994700018317,0,0,0,0,1,64,8614392,3.2187235355377197,1.4552364349365234,0.8884305953979492,0.9299339056015015,-1.0931031703948975,-0.010308138094842434,0.012117314152419567,26.42,0.0,0.0,0.92,0.03,0.05,0.05,0.43
10.944446100009372,0,0,0,0,1,64,8614423,3.2056145668029785,1.4511457681655884,0.8539161682128906,0.6380836367607117,-1.0940980911254883,0.0023177715484052896,0.005076535511761904,26.44,0.0,0.0,0.79,0.04,0.12,0.1,0.46
10.975298300007125,0,0,0,0,1,64,8614454,3.1947789192199707,1.4391294717788696,0.8153107762336731,0.36025652289390564,-1.1300123929977417,-0.001967954682186246,0.00010398449376225471,26.44,0.0,0.03,0.79,0.08,0.14,0.12,0.23
11.007047299994156,0,0,0,0,1,64,8614486,3.1913206577301025,1.4191879034042358,0.7751715779304504,0.08398117125034332,-1.1668906211853027,-0.0007168457377701998,0.0038227196782827377,26.44,0.08,0.03,0.92,0.03,0.09,0.09,0.03
11.031867900019279,0,0,0,0,1,64,8614511,3.1930267810821533,1.4035924673080444,0.7460260391235352,-0.08393596112728119,-1.1700599193572998,-0.002935020485892892,0.0012452686205506325,26.42,0.0,0.0,1.02,0.06,0.05,0.0,0.0
11.06968990000314,0,0,0,0,1,64,8614549,3.200051784515381,1.3895307779312134,0.705119788646698,-0.18872548639774323,-1.1394469738006592,0.001989588374271989,0.008490716107189655,26.42,0.01,0.0,1.06,0.07,0.11,0.0,0.0
11.100512400007574,0,0,0,0,1,64,8614579,3.204616069793701,1.3856958150863647,0.6818545460700989,-0.17369171977043152,-1.0494428873062134,-0.003991353325545788,0.005579931195825338,26.44,0.0,0.0,1.17,0.05,0.15,0.0,0.08
11.131301400018856,0,0,0,0,1,64,8614610,3.205737829208374,1.3805824518203735,0.6688156127929688,-0.16234762966632843,-0.8815504312515259,0.001117662526667118,0.006963688880205154,26.42,0.08,0.02,1.25,0.0,0.04,0.0,0.06
11.163303500012262,0,0,0,0,1,64,8614642,3.206578254699707,1.365242838859558,0.6688156127929688,-0.23846356570720673,-0.6335670351982117,0.0018515735864639282,-0.019559480249881744,26.44,0.0,0.05,0.9400000000000001,0.0,0.0,0.0,0.0
11.187874600000214,0,0,0,0,1,64,8614667,3.2144434452056885,1.344278335571289,0.6741847991943359,-0.3645098805427551,-0.4451196491718292,0.008990618400275707,-0.008522002957761288,26.44,0.0,0.17,1.0,0.0,0.0,0.0,0.0
11.224319800006924,0,0,0,0,1,64,8614703,3.2332379817962646,1.298258900642395,0.7086992263793945,-0.6373242139816284,-0.03591863065958023,0.006336009129881859,-0.005276227369904518,26.44,0.01,0.21,1.04,0.0,0.0,0.09,0.0
11.244824499997776,0,0,0,0,1,64,8614724,3.2458274364471436,1.2624660730361938,0.7519063949584961,-0.8397610187530518,0.3469657897949219,0.0004787659563589841,-0.001721627195365727,26.42,0.0,0.17,0.9500000000000001,0.0,0.0,0.09,0.0
11.271079199999804,0,0,0,0,1,64,8614750,3.259381055831909,1.2167023420333862,0.8250262141227722,-1.066454291343689,0.9148737788200378,-0.0031324236188083887,-0.0037182981614023447,26.44,0.12,0.03,1.17,0.03,0.0,0.04,0.0
11.301991600019392,0,0,0,0,1,64,8614781,3.267152786254883,1.170938491821289,0.9278027415275574,-1.1961779594421387,1.5782192945480347,0.0002940168487839401,0.0013953641755506396,26.42,0.09,0.0,1.17,0.0,0.0,0.0,0.0
11.332889900018927,0,0,0,0,1,64,8614812,3.264979839324951,1.1405147314071655,1.0362039804458618,-1.1496332883834839,2.1207544803619385,0.005967798177152872,0.0034265052527189255,26.44,0.11,0.11,1.1,0.0,0.09,0.01,0.07
11.364422500017099,0,0,0,0,1,64,8614843,3.2586019039154053,1.115203857421875,1.1374467611312866,-1.0488594770431519,2.4450440406799316,0.0033468338660895824,0.002781578339636326,26.44,0.0,0.14,1.05,0.0,0.2,0.1,0.1
11.395439899992198,0,0,0,0,1,64,8614874,3.2526047229766846,1.0799223184585571,1.2363885641098022,-1.0544919967651367,2.643188953399658,0.0018615673761814833,0.0006196365575306118,26.400000000000002,0.0,0.14,0.97,0.0,0.29,0.16,0.06
11.426699100004043,0,0,0,0,1,64,8614906,3.2493090629577637,1.031601905822754,1.3327735662460327,-1.1744846105575562,2.7525501251220703,-0.0013213458005338907,-0.00216242135502398,26.42,0.11,0.12,0.91,0.0,0.28,0.12,0.0
11.451916599995457,0,0,0,0,1,64,8614931,3.2498462200164795,0.9906957745552063,1.393877387046814,-1.2831895351409912,2.6951675415039062,0.0031263751443475485,-0.0016904750373214483,26.44,0.0,0.05,0.9500000000000001,0.0,0.22,0.11,0.0
11.489895400009118,0,0,0,0,1,64,8614969,3.251917839050293,0.9321489334106445,1.4652074575424194,-1.3707969188690186,2.432612895965576,0.008356745354831219,-0.005740229040384293,26.400000000000002,0.0,0.03,0.92,0.0,0.11,0.15,0.0
11.521013000019593,0,0,0,0,1,64,8615000,3.252323627471924,0.8904757499694824,1.5030455589294434,-1.3677763938903809,2.1056158542633057,0.010169008746743202,-0.0021737387869507074,26.42,0.0,0.0,0.93,0.0,0.11,0.2,0.03
11.551767299999483,0,0,0,0,1,64,8615031,3.2495129108428955,0.8521261215209961,1.5247769355773926,-1.3296301364898682,1.7240581512451172,0.004647799767553806,-0.01076559443026781,26.42,0.0,0.0,0.9400000000000001,0.0,0.15,0.21,0.14
11.582819300005212,0,0,0,0,1,64,8615062,3.243842601776123,0.8188899159431458,1.529378890991211,-1.2602283954620361,1.2960315942764282,0.002422056160867214,0.007010208908468485,26.44,0.0,0.0,0.97,0.0,0.08,0.16,0.28
11.6132515000063,0,0,0,0,1,64,8615092,3.234051465988159,0.791789710521698,1.5252882242202759,-1.1668484210968018,0.9065883755683899,0.005706517957150936,0.01471663173288107,26.42,0.12,0.0,0.93,0.0,0.0,0.12,0.53
11.644175900000846,0,0,0,0,1,64,8615123,3.217794179916382,0.771336555480957,1.513527750968933,-1.0311665534973145,0.5574292540550232,0.0072030844166874886,0.004445037338882685,26.42,0.0,0.0,0.87,0.0,0.0,0.1,0.63
11.675381200009724,0,0,0,0,1,64,8615154,3.199899911880493,0.7570193409919739,1.491540789604187,-0.8719788193702698,0.214086651802063,-0.0007730582146905363,0.004221170209348202,26.42,0.01,0.05,0.86,0.0,0.0,0.11,0.54
11.70656869999948,0,0,0,0,1,64,8615185,3.186392068862915,0.7401455044746399,1.466230034828186,-0.7729286551475525,-0.07456617057323456,-0.0020499546080827713,-0.0010975751793012023,26.44,0.09,0.11,0.86,0.0,0.0,0.1,0.3
11.737625700014178,0,0,0,0,1,64,8615216,3.1819169521331787,0.7143235206604004,1.4483333826065063,-0.7780766487121582,-0.2238529622554779,0.006517064291983843,0.005925982724875212,26.42,0.12,0.07,0.92,0.0,0.0,0.1,0.0
11.768746699992334,0,0,0,0,1,64,8615248,3.18735933303833,0.6810874938964844,1.442453384399414,-0.8502154350280762,-0.22210027277469635,0.001687456388026476,0.005535275209695101,26.44,0.0,0.0,1.01,0.0,0.0,0.17,0.0
11.793985900003463,0,0,0,0,1,64,8615273,3.1948535442352295,0.65679931640625,1.4416862726211548,-0.8854162693023682,-0.1731274276971817,0.0027078534476459026,0.02128412202000618,26.42,0.09,0.0,1.1,0.0,0.0,0.27,0.0
11.8310335999995,0,0,0,0,1,64,8615310,3.202744483947754,0.6325114369392395,1.440919280052185,-0.8229509592056274,-0.12003016471862793,-0.0003547047672327608,0.02717069536447525,26.44,0.17,0.0,1.25,0.0,0.05,0.33,0.03
11.856062100006966,0,0,0,0,1,64,8615335,3.204324960708618,0.6276537775993347,1.4340165853500366,-0.6937615275382996,-0.14156076312065125,-0.009682327508926392,0.01182924397289753,26.42,0.0,0.0,1.04,0.0,0.01,0.28,0.0
11.893783600011375,0,0,0,0,1,64,8615373,3.214047431945801,0.6355794072151184,1.4099839925765991,-0.40239807963371277,-0.292769193649292,-0.0006143909995444119,0.0014915009960532188,26.44,0.0,0.3,0.89,0.2,0.0,0.06,0.0
11.925344100018265,0,0,0,0,1,64,8615404,3.2336106300354004,0.6639578938484192,1.3749580383300781,-0.06383731961250305,-0.5075358748435974,-0.006376125384122133,-0.000419107498601079,26.42,0.11,0.15,0.96,0.17,0.32,0.0,0.0
11.957034499995643,0,0,0,0,1,64,8615436,3.2555081844329834,0.7263398170471191,1.3228029012680054,0.4841136634349823,-0.8173729181289673,-0.005407419055700302,-0.0018440710846334696,26.44,0.06,0.14,1.07,0.0,0.36,0.0,0.0
11.981886099994881,0,0,0,0,1,64,8615461,3.267725944519043,0.7923009991645813,1.276272177696228,0.970621645450592,-1.0591776371002197,-0.003760677995160222,-0.002618710743263364,26.44,0.01,0.1,1.17,0.0,0.32,0.0,0.0
12.018879100010963,0,0,0,0,1,64,8615498,3.276721715927124,0.8989126086235046,1.2207931280136108,1.5912340879440308,-1.218980073928833,0.0011497049126774073,-0.005478983279317617,26.44,0.0,0.07,1.18,0.0,0.1,0.0,0.0
12.044143100007204,0,0,0,0,1,64,8615523,3.278139591217041,0.9748446345329285,1.1934372186660767,1.9162671566009521,-1.1941484212875366,0.005845522042363882,-0.004919992759823799,26.44,0.01,0.0,1.23,0.0,0.0,0.0,0.0
12.08022180001717,0,0,0,0,1,64,8615559,3.274204730987549,1.0881036520004272,1.160456657409668,2.296556234359741,-1.1001033782958984,0.0015906838234513998,-0.002799654845148325,26.44,0.03,0.07,1.05,0.0,0.0,0.0,0.16
12.101055800012546,0,0,0,0,1,64,8615580,3.269280433654785,1.1545761823654175,1.1389808654785156,2.4677653312683105,-1.0862786769866943,-0.002709659980610013,-0.0019551082514226437,26.42,0.0,0.06,1.03,0.0,0.0,0.0,0.19
12.12697169999592,0,0,0,0,1,64,8615606,3.2623698711395264,1.2320421934127808,1.1049776077270508,2.5976758003234863,-1.11968994140625,0.005854189395904541,-0.003429870819672942,26.44,0.08,0.07,0.9,0.0,0.0,0.0,0.16
12.15753590001259,0,0,0,0,1,64,8615636,3.256527900695801,1.3082298040390015,1.0643268823623657,2.5922772884368896,-1.1820690631866455,-0.003761621192097664,-0.002001776359975338,26.400000000000002,0.0,0.05,0.8300000000000001,0.03,0.0,0.0,0.1
12.188363299996126,0,0,0,0,1,64,8615667,3.2536871433258057,1.368054986000061,1.0208641290664673,2.4195761680603027,-1.2415963411331177,-0.005157175473868847,0.005702839698642492,26.42,0.0,0.08,0.88,0.06,0.0,0.0,0.0
12.219845700019505,0,0,0,0,1,64,8615699,3.252222776412964,1.4115177392959595,0.976634681224823,2.126056432723999,-1.2834635972976685,-0.002002925146371126,0.005019342992454767,26.42,0.09,0.02,0.92,0.03,0.0,0.0,0.02
12.245081700006267,0,0,0,0,1,64,8615724,3.250704050064087,1.4350389242172241,0.9433981776237488,1.8561071157455444,-1.2939174175262451,-0.0023646573536098003,-0.0002029011957347393,26.44,0.04,0.03,0.91,0.0,0.0,0.0,0.06
12.281336100015324,0,0,0,0,1,64,8615760,3.246936082839966,1.4537023305892944,0.9001913070678711,1.439605712890625,-1.2653977870941162,0.002350822789594531,-0.00744327437132597,26.42,0.0,0.0,0.96,0.0,0.0,0.0,0.19
12.30211399999098,0,0,0,0,1,64,8615781,3.242222785949707,1.457537293434143,0.8782040476799011,1.19723379611969,-1.224232792854309,-0.0035066280979663134,-0.0040731728076934814,26.42,0.0,0.0,0.96,0.04,0.0,0.0,0.32
12.32815909999772,0,0,0,0,1,64,8615807,3.233135223388672,1.45779287815094,0.8546829223632812,0.9105579853057861,-1.1518727540969849,-0.0016037196619436145,0.0022801547311246395,26.44,0.17,0.0,0.98,0.1,0.0,0.0,0.51
12.358385200001067,0,0,0,0,1,64,8615837,3.2159061431884766,1.4565147161483765,0.8344857096672058,0.6535203456878662,-1.0289288759231567,-0.005659251008182764,0.0010905287927016616,26.44,0.06,0.0,0.96,0.07,0.03,0.0,0.71
12.38859620000585,0,0,0,0,1,64,8615867,3.1964690685272217,1.4429645538330078,0.8250262141227722,0.37303099036216736,-0.8451046347618103,-0.0011093101929873228,-0.0073606097139418125,26.42,0.0,0.0,0.9500000000000001,0.08,0.08,0.0,0.71
12.418914700014284,0,0,0,0,1,64,8615898,3.177825450897217,1.415864109992981,0.8234920501708984,0.03449034318327904,-0.6246042251586914,-0.005020585842430592,-0.021810399368405342,26.44,0.06,0.05,0.8300000000000001,0.09,0.13,0.0,0.5700000000000001
12.44916469999589,0,0,0,0,1,64,8615928,3.165518045425415,1.3948997259140015,0.81658935546875,-0.18093758821487427,-0.49813854694366455,-0.005456448066979647,-0.004060395993292332,26.400000000000002,0.0,0.03,0.93,0.0,0.1,0.0,0.26
12.480314600019483,0,0,0,0,1,64,8615959,3.1602060794830322,1.3913205862045288,0.7923011779785156,-0.17961856722831726,-0.5595754981040955,0.0034277650993317366,-0.0007252009818330407,26.42,0.0,0.04,0.87,0.0,0.1,0.0,0.08
12.511528000002727,0,0,0,0,1,64,8615990,3.1653876304626465,1.3928543329238892,0.7582979202270508,-0.1089731827378273,-0.7072943449020386,0.01623792201280594,0.0018952839309349656,26.42,0.0,0.0,1.02,0.0,0.08,0.0,0.0
12.541713400016306,0,0,0,0,1,64,8616021,3.1771199703216553,1.3918317556381226,0.7265955805778503,-0.08034910261631012,-0.8060424327850342,0.017333781346678734,0.0010214580688625574,26.42,0.04,0.0,1.16,0.14,0.07,0.0,0.0
12.573782299994491,0,0,0,0,1,64,8616053,3.182105541229248,1.3885082006454468,0.7069094777107239,-0.08018498122692108,-0.7704379558563232,0.01610887236893177,0.0057367379777133465,26.44,0.0,0.0,1.26,0.0,0.0,0.0,0.07
12.598302200000035,0,0,0,0,1,64,8616077,3.1814966201782227,1.3744467496871948,0.7061427235603333,-0.17174622416496277,-0.6223066449165344,0.00835944153368473,0.0011276289587840438,26.42,0.01,0.12,0.92,0.02,0.06,0.0,0.0
12.635679800005164,0,0,0,0,1,64,8616115,3.1947274208068848,1.3406991958618164,0.7207155227661133,-0.40644145011901855,-0.29656702280044556,0.0013885038206353784,0.006385435815900564,26.42,0.03,0.09,0.9,0.0,0.1,0.0,0.0
12.666301100020064,0,0,0,0,1,64,8616145,3.2120347023010254,1.309508204460144,0.7526734471321106,-0.57438063621521,0.04700472950935364,-0.003555226605385542,0.00227853050455451,26.44,0.0,0.28,0.96,0.0,0.0,0.08,0.0
12.69773770001484,0,0,0,0,1,64,8616177,3.2295312881469727,1.2683463096618652,0.8145440220832825,-0.7713553309440613,0.5585677027702332,2.769601996988058e-05,-0.004405029583722353,26.42,0.0,0.18,1.1400000000000001,0.0,0.0,0.17,0.0
12.722397300007287,0,0,0,0,1,64,8616201,3.241269111633301,1.236899733543396,0.8789710998535156,-0.8941323161125183,1.015331506729126,0.002745684003457427,-0.0012475228868424892,26.42,0.0,0.14,1.25,0.04,0.0,0.19,0.0
12.760212499997579,0,0,0,0,1,64,8616239,3.2477378845214844,1.200595498085022,1.0029678344726562,-0.9269424676895142,1.746209740638733,0.002924339845776558,0.0008071428164839745,26.42,0.0,0.1,1.23,0.0,0.01,0.18,0.0
12.79169240000192,0,0,0,0,1,64,8616271,3.2424278259277344,1.180909514427185,1.1126474142074585,-0.8394359946250916,2.2336032390594482,0.002620443468913436,-0.007339108269661665,26.42,0.16,0.16,1.11,0.0,0.18,0.3,0.13
12.816336499992758,0,0,0,0,1,64,8616295,3.2354843616485596,1.1653140783309937,1.1936928033828735,-0.7891622185707092,2.4833149909973145,0.007062409073114395,-0.006544578354805708,26.42,0.03,0.11,1.05,0.0,0.27,0.37,0.18
12.852590499998769,0,0,0,0,1,64,8616331,3.224825859069824,1.1333560943603516,1.3128318786621094,-0.8114110231399536,2.746636152267456,0.005643821787089109,-0.006047951057553291,26.44,0.0,0.14,0.93,0.0,0.3,0.43,0.2
12.877305700007128,0,0,0,0,1,64,8616356,3.2175686359405518,1.1077896356582642,1.3849290609359741,-0.8588025569915771,2.7930514812469482,0.0029577859677374363,-0.002807987853884697,26.42,0.0,0.1,0.87,0.0,0.22,0.41000000000000003,0.24
12.91365980001865,0,0,0,0,1,64,8616392,3.2069010734558105,1.069440245628357,1.4723659753799438,-0.9225894212722778,2.6821019649505615,0.0038349535316228867,-0.012729295529425144,26.42,0.0,0.09,0.85,0.0,0.18,0.44,0.28
12.93834570000763,0,0,0,0,1,64,8616417,3.199862480163574,1.0392718315124512,1.5217089653015137,-0.9817239046096802,2.523939847946167,-0.002563496120274067,-0.010135073214769363,26.44,0.11,0.07,0.84,0.0,0.22,0.47000000000000003,0.18
12.976847600017209,0,0,0,0,1,64,8616456,3.190855026245117,0.9883949160575867,1.5756540298461914,-1.0894548892974854,2.1523406505584717,0.006339373532682657,0.0009808975737541914,26.44,0.0,0.07,0.8200000000000001,0.0,0.23,0.37,0.12
13.008670500013977,0,0,0,0,1,64,8616487,3.187559127807617,0.9495339393615723,1.5915050506591797,-1.1348177194595337,1.7133781909942627,0.0003315570647828281,0.00041113662882708013,26.44,0.0,0.0,0.92,0.0,0.13,0.25,0.11
13.039983900001971,0,0,0,0,1,64,8616519,3.184485673904419,0.9129740595817566,1.589459776878357,-1.1394277811050415,1.2101057767868042,-0.003778250189498067,0.004786637146025896,26.44,0.11,0.0,0.93,0.0,0.0,0.16,0.28
13.06434199999785,0,0,0,0,1,64,8616543,3.1782238483428955,0.8884304165840149,1.5830682516098022,-1.1163283586502075,0.8812305331230164,0.0012940103188157082,0.0023915183264762163,26.400000000000002,0.0,0.0,0.87,0.0,0.0,0.1,0.42
13.101751800015336,0,0,0,0,1,64,8616581,3.164818525314331,0.8559611439704895,1.5605697631835938,-1.0297276973724365,0.40516889095306396,0.002739744493737817,-0.0009737836662679911,26.44,0.19,0.0,0.93,0.0,0.0,0.05,0.42
13.133068800001638,0,0,0,0,1,64,8616612,3.1548261642456055,0.8303947448730469,1.5329581499099731,-0.9675279259681702,0.049461398273706436,0.003629679325968027,-0.0023009227588772774,26.400000000000002,0.0,0.06,0.89,0.0,0.0,0.01,0.27
13.164024600002449,0,0,0,0,1,64,8616643,3.1508660316467285,0.7953688502311707,1.509437084197998,-0.997959315776825,-0.18752193450927734,0.0028913517016917467,0.0009714937186799943,26.42,0.01,0.06,0.92,0.0,0.0,0.02,0.04
13.194273700006306,0,0,0,0,1,64,8616673,3.1534948348999023,0.7513947486877441,1.4963983297348022,-1.1153231859207153,-0.261743426322937,0.0022533456794917583,-0.007885660976171494,26.44,0.0,0.05,0.97,0.0,0.0,0.1,0.0
13.22645499999635,0,0,0,0,1,64,8616705,3.1624557971954346,0.702307403087616,1.4910293817520142,-1.2390989065170288,-0.23622502386569977,-0.0011407986748963594,0.006993763614445925,26.44,0.04,0.0,1.11,0.0,0.0,0.25,0.0
13.250516200001584,0,0,0,0,1,64,8616729,3.1704154014587402,0.6718835830688477,1.4905180931091309,-1.2566980123519897,-0.18704047799110413,-0.00013914122246205807,0.0006617227918468416,26.42,0.12,0.0,1.11,0.0,0.0,0.37,0.0
13.288801300019259,0,0,0,0,1,64,8616768,3.1753735542297363,0.643504798412323,1.4838708639144897,-1.0955735445022583,-0.16404105722904205,-0.003063452197238803,-0.008962069638073444,26.42,0.0,0.04,1.28,0.07,0.16,0.34,0.05
13.31921390001662,0,0,0,0,1,64,8616798,3.1777679920196533,0.6378803253173828,1.466230034828186,-0.8584869503974915,-0.26899051666259766,-0.00782098714262247,0.0006017449195496738,26.42,0.0,0.0,1.1,0.03,0.1,0.22,0.0
13.351052900019567,0,0,0,0,1,64,8616830,3.1867456436157227,0.6381359100341797,1.4462881088256836,-0.6090962290763855,-0.37561047077178955,-0.02783557027578354,-0.004309938754886389,26.44,0.0,0.14,0.92,0.17,0.06,0.02,0.0
13.375511599995662,0,0,0,0,1,64,8616854,3.2011053562164307,0.6424821019172668,1.4299259185791016,-0.44153329730033875,-0.4372639060020447,-0.017796143889427185,0.003428749041631818,26.44,0.0,0.16,0.96,0.19,0.23,0.0,0.0
13.41294020001078,0,0,0,0,1,64,8616892,3.227194309234619,0.6920809745788574,1.3818610906600952,0.08750919997692108,-0.6847712993621826,-0.010998228564858437,-0.0021816554944962263,26.42,0.0,0.23,0.93,0.0,0.21,0.0,0.0
13.443791300000157,0,0,0,0,1,64,8616923,3.242480993270874,0.774915874004364,1.3217802047729492,0.7825304865837097,-1.0212403535842896,-0.007194805424660444,0.006700271740555763,26.44,0.03,0.15,1.1400000000000001,0.0,0.19,0.0,0.0
13.475548499991419,0,0,0,0,1,64,8616954,3.2502617835998535,0.8743689656257629,1.2655340433120728,1.4558011293411255,-1.2603338956832886,-0.0026794776786118746,0.00029336323495954275,26.44,0.03,0.12,1.1,0.0,0.17,0.0,0.0
13.506820200011134,0,0,0,0,1,64,8616986,3.2526936531066895,0.9774012565612793,1.2259063720703125,1.9647467136383057,-1.2716068029403687,-0.011506764218211174,0.004009225405752659,26.44,0.0,0.09,1.1,0.0,0.02,0.0,0.0
13.531589299993357,0,0,0,0,1,64,8617010,3.2512431144714355,1.0543559789657593,1.204686164855957,2.2414629459381104,-1.1887837648391724,-0.007148808799684048,-0.003798361402004957,26.44,0.08,0.08,1.1,0.02,0.0,0.0,0.05
13.568244299996877,0,0,0,0,1,64,8617047,3.2437539100646973,1.1714497804641724,1.1722170114517212,2.538119077682495,-1.0762900114059448,-0.002996948082000017,0.0009106436045840383,26.44,0.11,0.1,1.01,0.0,0.0,0.0,0.17
13.600031600013608,0,0,0,0,1,64,8617079,3.23681378364563,1.2670680284500122,1.1364240646362305,2.666508674621582,-1.07705819606781,-0.01260228082537651,0.004303629044443369,26.44,0.16,0.1,0.89,0.0,0.0,0.0,0.12
13.624676400009776,0,0,0,0,1,64,8617103,3.233120918273926,1.3271489143371582,1.1075340509414673,2.6433794498443604,-1.1039260625839233,-0.011816107667982578,-0.0003941256436519325,26.42,0.19,0.11,0.89,0.0,0.0,0.0,0.02
13.662955300009344,0,0,0,0,1,64,8617142,3.2312302589416504,1.4002686738967896,1.0592139959335327,2.3954555988311768,-1.1493663787841797,-0.006777431350201368,-0.001993216574192047,26.42,0.0,0.05,0.9,0.05,0.0,0.0,0.0
13.6931154000049,0,0,0,0,1,64,8617172,3.230438470840454,1.4386181831359863,1.0200973749160767,2.1022744178771973,-1.188081979751587,-0.0008162950980477035,-0.004825510550290346,26.44,0.09,0.08,0.93,0.05,0.0,0.0,0.0
13.723951099993428,0,0,0,0,1,64,8617203,3.22906756401062,1.4636732339859009,0.9797026515007019,1.7475941181182861,-1.2213404178619385,-0.005284997634589672,-0.0034813806414604187,26.42,0.0,0.01,0.9400000000000001,0.03,0.0,0.0,0.07
13.754452299996046,0,0,0,0,1,64,8617233,3.225249767303467,1.4744110107421875,0.9423754811286926,1.3787592649459839,-1.228705883026123,-0.009145389311015606,-0.013079694472253323,26.44,0.0,0.0,0.9400000000000001,0.05,0.0,0.0,0.18
13.786459900002228,0,0,0,0,1,64,8617265,3.218291759490967,1.4733883142471313,0.9070940017700195,0.97955721616745,-1.1949344873428345,-0.014415385201573372,-0.003479455830529332,26.42,0.11,0.0,0.93,0.07,0.1,0.0,0.41000000000000003
13.810744000016712,0,0,0,0,1,64,8617290,3.2069997787475586,1.471854567527771,0.8835728764533997,0.7346907258033752,-1.139146327972412,-0.018187588080763817,-0.0010138496290892363,26.42,0.09,0.0,0.85,0.08,0.21,0.0,0.6
13.849145000014687,0,0,0,0,1,64,8617328,3.1849923133850098,1.4608608484268188,0.8559615015983582,0.4052783250808716,-1.0074588060379028,-0.0023253157269209623,0.001301224809139967,26.42,0.11,0.0,0.86,0.04,0.29,0.0,0.59
13.879202900017845,0,0,0,0,1,64,8617358,3.169008255004883,1.4485889673233032,0.8365309834480286,0.18327128887176514,-0.9069129824638367,0.0028079417534172535,-0.0010197609663009644,26.44,0.0,0.0,0.89,0.01,0.25,0.0,0.53
13.911415200011106,0,0,0,0,1,64,8617390,3.1558847427368164,1.4386181831359863,0.8112201690673828,0.03619898483157158,-0.8653097152709961,0.0002802786184474826,-0.00034805230097845197,26.400000000000002,0.0,0.06,0.89,0.0,0.21,0.0,0.26
13.9356884000008,0,0,0,0,1,64,8617414,3.152106285095215,1.4358059167861938,0.7882105708122253,-0.0031910387333482504,-0.8806809186935425,-0.0037559985648840666,-0.003906504716724157,26.44,0.08,0.04,0.97,0.0,0.16,0.0,0.11
13.972436900017783,0,0,0,0,1,64,8617451,3.1534831523895264,1.4360615015029907,0.7526734471321106,0.0009729916928336024,-0.9096817970275879,0.011705592274665833,-0.0020603423472493887,26.42,0.11,0.0,1.08,0.0,0.1,0.0,0.0
14.00301000001491,0,0,0,0,1,64,8617482,3.160623073577881,1.4360615015029907,0.7248061299324036,0.004010430537164211,-0.9084572196006775,0.011890880763530731,-0.0007782011525705457,26.44,0.06,0.0,1.1300000000000001,0.08,0.1,0.0,0.0
14.03436980000697,0,0,0,0,1,64,8617513,3.1647465229034424,1.435294508934021,0.7046086192131042,3.819295670837164e-05,-0.84333735704422,0.01127356942743063,0.0011754896258935332,26.46,0.0,0.05,1.28,0.0,0.0,0.0,0.1
14.066444399999455,0,0,0,0,1,64,8617545,3.1645748615264893,1.423022747039795,0.7002623677253723,-0.0925116017460823,-0.6584922671318054,0.0058824713341891766,0.007546274457126856,26.42,0.0,0.12,0.96,0.0,0.0,0.0,0.0
14.090781000006245,0,0,0,0,1,64,8617570,3.1722300052642822,1.4051262140274048,0.7058868408203125,-0.23006053268909454,-0.4594719707965851,0.003054792992770672,-0.002594666089862585,26.42,0.0,0.18,0.88,0.0,0.0,0.0,0.0
14.128972000005888,0,0,0,0,1,64,8617608,3.195284843444824,1.3695889711380005,0.7368221282958984,-0.4560035765171051,-0.06290099024772644,0.001353384694084525,0.0008032581536099315,26.42,0.0,0.25,1.02,0.0,0.0,0.0,0.0
14.159790600009728,0,0,0,0,1,64,8617639,3.2163305282592773,1.329194188117981,0.7986927032470703,-0.6818389892578125,0.4702785015106201,-0.003928693942725658,0.005850902292877436,26.42,0.0,0.07,1.03,0.0,0.0,0.19,0.0
14.190678999992087,0,0,0,0,1,64,8617669,3.2293131351470947,1.2862428426742554,0.8868967890739441,-0.8872595429420471,1.1240174770355225,-0.0023019383661448956,0.00265036360360682,26.44,0.03,0.09,1.21,0.01,0.0,0.29,0.0
14.221790900017368,0,0,0,0,1,64,8617701,3.2310068607330322,1.2524951696395874,0.9981101155281067,-0.9518270492553711,1.7930272817611694,0.0034014724660664797,-0.0005850489251315594,26.42,0.0,0.15,1.16,0.0,0.0,0.31,0.0
14.246759700006805,0,0,0,0,1,64,8617726,3.226844310760498,1.2351101636886597,1.0837574005126953,-0.8976423740386963,2.1813347339630127,0.0034367996267974377,-0.003195305820554495,26.42,0.09,0.19,1.07,0.0,0.1,0.4,0.11
14.283484300016426,0,0,0,0,1,64,8617762,3.218970775604248,1.208776831626892,1.1985502243041992,-0.8309489488601685,2.4965240955352783,-0.00042223185300827026,-0.0039115301333367825,26.44,0.0,0.17,0.96,0.0,0.28,0.49,0.07
14.303776999993715,0,0,0,0,1,64,8617783,3.2160959243774414,1.1857670545578003,1.2645114660263062,-0.8702813982963562,2.6223456859588623,0.0032203339505940676,-0.010189025662839413,26.400000000000002,0.0,0.16,0.89,0.0,0.36,0.49,0.02
14.32916789999581,0,0,0,0,1,64,8617808,3.2143971920013428,1.1507411003112793,1.3373756408691406,-0.9821863770484924,2.697394371032715,0.007799225859344006,-0.0048711467534303665,26.42,0.09,0.1,0.91,0.0,0.37,0.44,0.0
14.360431300010532,0,0,0,0,1,64,8617839,3.215481758117676,1.0988415479660034,1.411773681640625,-1.1661853790283203,2.623983383178711,0.008083589375019073,-0.007860495708882809,26.42,0.0,0.09,0.89,0.0,0.26,0.38,0.0
14.391423199995188,0,0,0,0,1,64,8617870,3.2175416946411133,1.0428510904312134,1.4728771448135376,-1.3411883115768433,2.4461350440979004,0.003680461784824729,-0.00999363511800766,26.42,0.12,0.09,0.87,0.0,0.19,0.41000000000000003,0.0
14.423012500017649,0,0,0,0,1,64,8617902,3.219068765640259,0.9850711822509766,1.5199193954467773,-1.4739967584609985,2.177257537841797,0.0009719249792397022,-0.0022948672994971275,26.42,0.03,0.05,0.93,0.0,0.18,0.41000000000000003,0.0
14.447940800018841,0,0,0,0,1,64,8617927,3.219444513320923,0.9436537623405457,1.5436960458755493,-1.5244778394699097,1.9051626920700073,0.005944131873548031,-0.00033159798476845026,26.400000000000002,0.0,0.07,0.9500000000000001,0.0,0.17,0.39,0.0
14.484181600011652,0,0,0,0,1,64,8617963,3.2184958457946777,0.8932879567146301,1.5552009344100952,-1.4916578531265259,1.4216504096984863,-0.002796931192278862,0.013747976161539555,26.42,0.04,0.03,0.97,0.0,0.08,0.33,0.06
14.504826799995499,0,0,0,0,1,64,8617984,3.216881275177002,0.8702783584594727,1.553155541419983,-1.4166159629821777,1.118524432182312,-0.0010657049715518951,0.024543406441807747,26.400000000000002,0.0,0.0,1.03,0.0,0.02,0.29,0.19
14.531136600009631,0,0,0,0,1,64,8618010,3.2105026245117188,0.8485469818115234,1.5488094091415405,-1.2841496467590332,0.8107660412788391,0.002059831516817212,-0.00613061897456646,26.400000000000002,0.0,0.0,1.0,0.0,0.0,0.22,0.45
14.561786400008714,0,0,0,0,1,64,8618041,3.196026086807251,0.8303947448730469,1.5370488166809082,-1.0933454036712646,0.48737195134162903,0.0033312963787466288,0.0007074737804941833,26.42,0.0,0.0,1.0,0.0,0.0,0.19,0.67
14.592876300011994,0,0,0,0,1,64,8618072,3.176851511001587,0.8145437240600586,1.5158287286758423,-0.9265214204788208,0.1704528033733368,0.005429530516266823,0.00244255643337965,26.400000000000002,0.11,0.0,0.88,0.0,0.0,0.19,0.72
14.62361010001041,0,0,0,0,1,64,8618102,3.1587395668029785,0.7971585392951965,1.4877057075500488,-0.8285399675369263,-0.12543781101703644,0.003489344846457243,-0.0007359734736382961,26.42,0.01,0.11,0.76,0.0,0.0,0.16,0.41000000000000003
14.655911700014258,0,0,0,0,1,64,8618135,3.1502878665924072,0.7669903635978699,1.463417649269104,-0.8396821618080139,-0.3170492649078369,0.014614764600992203,-0.003978796303272247,26.42,0.01,0.13,0.78,0.1,0.0,0.17,0.0
14.67993790001492,0,0,0,0,1,64,8618159,3.1527204513549805,0.7363106608390808,1.4572817087173462,-0.9268726110458374,-0.32130226492881775,0.0053208670578897,0.003112372476607561,26.42,0.0,0.07,0.9400000000000001,0.17,0.0,0.13,0.0
14.717054200009443,0,0,0,0,1,64,8618196,3.167947769165039,0.6844110488891602,1.4572817087173462,-1.08555006980896,-0.21442009508609772,0.009044085629284382,0.0022281166166067123,26.42,0.11,0.0,1.05,0.04,0.0,0.08,0.0
14.748417599999812,0,0,0,0,1,64,8618227,3.181089401245117,0.6475954055786133,1.4557479619979858,-1.1252529621124268,-0.1615159660577774,0.00686755683273077,-0.0014793381560593843,26.42,0.0,0.0,1.24,0.0,0.08,0.16,0.0
14.778810399991926,0,0,0,0,1,64,8618258,3.182539224624634,0.6250970959663391,1.4506345987319946,-1.0289524793624878,-0.14904530346393585,0.002415191847831011,-0.007397984154522419,26.44,0.0,0.08,1.17,0.0,0.25,0.13,0.07
14.809097599994857,0,0,0,0,1,64,8618288,3.183577060699463,0.6220291256904602,1.4294143915176392,-0.7956427335739136,-0.28285691142082214,-0.007933282293379307,0.0005653505213558674,26.44,0.0,0.13,0.96,0.0,0.01,0.1,0.0
14.840221699996619,0,0,0,0,1,64,8618319,3.1955935955047607,0.6312330365180969,1.4002689123153687,-0.49716028571128845,-0.4645381569862366,-0.0001826272055041045,0.001191847724840045,26.42,0.06,0.21,0.96,0.17,0.09,0.0,0.0
14.87128059999668,0,0,0,0,1,64,8618350,3.216787815093994,0.6603787541389465,1.3639646768569946,-0.12142534554004669,-0.6507701873779297,-0.00174859375692904,0.004366912413388491,26.400000000000002,0.04,0.15,0.97,0.04,0.26,0.0,0.0
14.90136160000111,0,0,0,0,1,64,8618380,3.2372915744781494,0.7181585431098938,1.3184562921524048,0.4037337899208069,-0.875578761100769,0.0038622512947767973,0.004044252447783947,26.42,0.16,0.16,1.07,0.0,0.2,0.0,0.0
14.932517000008374,0,0,0,0,1,64,8618411,3.2511184215545654,0.802271842956543,1.265022873878479,1.0306330919265747,-1.110087513923645,-0.0025566774420440197,0.0009186912793666124,26.400000000000002,0.0,0.11,1.17,0.0,0.14,0.0,0.0
14.963096199993743,0,0,0,0,1,64,8618442,3.2575089931488037,0.9009578824043274,1.2187477350234985,1.6218132972717285,-1.230714201927185,0.0026881173253059387,0.00238207564689219,26.42,0.09,0.07,1.17,0.0,0.04,0.0,0.0
14.993867100012721,0,0,0,0,1,64,8618473,3.2574901580810547,1.00347900390625,1.1834663152694702,2.0924198627471924,-1.212043285369873,-3.6933779483661056e-05,-0.004885231144726276,26.44,0.01,0.06,1.01,0.0,0.0,0.0,0.0
