Time,PowerKeyState,FuncKeyState ,UpKeyState ,DownKeyState ,DeviceError ,Battery ,DeviceMs ,BackIncl ,HipAngle_L ,HipAngle_R ,HipSpeed_L ,HipSpeed_R ,HipTor_L ,HipTor_R ,Voltage ,Current ,AccX ,AccY ,AccZ ,GyroX ,GyroY ,GyroZ
0.0005764999950770289,0,0,0,0,1,65,7928174,2.964406728744507,1.7019516229629517,1.251217246055603,0.5294213891029358,-0.6876753568649292,0.004790890961885452,-0.000926207285374403,26.46,0.0,0.1,0.8300000000000001,0.13,0.13,0.0,0.41000000000000003
0.036662799975601956,0,0,0,0,1,65,7928210,2.9533650875091553,1.698116660118103,1.2358770370483398,0.33600059151649475,-0.608613133430481,-0.008541395887732506,-0.004316809121519327,26.48,0.0,0.2,0.8300000000000001,0.11,0.19,0.0,0.26
0.0574019999767188,0,0,0,0,1,65,7928231,2.9503931999206543,1.6907024383544922,1.2287187576293945,0.20668789744377136,-0.5534607172012329,-0.00030868849717080593,-0.0017876776400953531,26.48,0.04,0.19,0.92,0.07,0.16,0.0,0.11
0.08388739998918027,0,0,0,0,1,65,7928257,2.9523775577545166,1.6774078607559204,1.2195148468017578,0.0382976196706295,-0.5022376179695129,-0.003809612477198243,-0.0021209600381553173,26.48,0.0,0.14,1.0,0.0,0.03,0.0,0.0
0.11511699997936375,0,0,0,0,1,65,7928289,2.958209753036499,1.6597671508789062,1.2013626098632812,-0.13100413978099823,-0.5075585842132568,-0.0044045280665159225,-0.003804767271503806,26.44,0.0,0.08,0.9500000000000001,0.07,0.0,0.0,0.0
0.14052069999161176,0,0,0,0,1,65,7928314,2.964966058731079,1.6464725732803345,1.1821876764297485,-0.22361847758293152,-0.5646020770072937,-0.003792339004576206,-0.0010160193778574467,26.48,0.0,0.1,0.86,0.06,0.0,0.0,0.0
0.17664319998584688,0,0,0,0,1,65,7928350,2.9778764247894287,1.6198835372924805,1.154576301574707,-0.3716718256473541,-0.6379513144493103,0.003236785065382719,-0.005244003608822823,26.48,0.06,0.27,1.12,0.0,0.01,0.0,0.0
0.19739029998891056,0,0,0,0,1,65,7928371,2.989076852798462,1.5961068868637085,1.1456279754638672,-0.5075446963310242,-0.6082791686058044,0.0006428262568078935,0.001063668867573142,26.48,0.01,0.32,0.97,0.0,0.0,0.0,0.0
0.2238278999866452,0,0,0,0,1,65,7928397,3.0098726749420166,1.558524489402771,1.148951530456543,-0.7224064469337463,-0.45241057872772217,-0.0041364762000739574,-0.003705175593495369,26.48,0.0,0.44,0.9,0.0,0.0,0.0,0.0
0.25631199998315424,0,0,0,0,1,65,7928430,3.0381386280059814,1.5076473951339722,1.1704273223876953,-0.9665196537971497,-0.14379845559597015,0.004174189176410437,0.002991001820191741,26.46,0.0,0.53,1.19,0.0,0.0,0.0,0.0
0.2804781000013463,0,0,0,0,1,65,7928454,3.060887575149536,1.4777346849441528,1.2011070251464844,-1.0415661334991455,0.1536044180393219,0.006819107569754124,0.006976568140089512,26.48,0.0,0.25,1.23,0.0,0.0,0.0,0.0
0.31769769999664277,0,0,0,0,1,65,7928491,3.0794637203216553,1.4473108053207397,1.2801071405410767,-0.9803780913352966,0.7678270936012268,-0.000844425056129694,0.005845691077411175,26.48,0.08,0.29,1.1,0.0,0.03,0.16,0.0
0.34237599998596124,0,0,0,0,1,65,7928516,3.0791921615600586,1.4355502128601074,1.3491359949111938,-0.8670194149017334,1.2217717170715332,-0.0019886984955519438,-0.0007869181572459638,26.48,0.01,0.3,1.1,0.0,0.24,0.27,0.06
0.3788164999859873,0,0,0,0,1,65,7928552,3.0707645416259766,1.4266020059585571,1.4554920196533203,-0.6727913618087769,1.7663265466690063,0.0011958105023950338,-0.007772347889840603,26.48,0.08,0.21,1.0,0.0,0.3,0.37,0.21
0.3995373999932781,0,0,0,0,1,65,7928573,3.0647006034851074,1.4212331771850586,1.5163401365280151,-0.5833446979522705,1.9971284866333008,0.005589759908616543,-0.0150900948792696,26.48,0.01,0.21,0.92,0.0,0.26,0.36,0.22
0.4253874999994878,0,0,0,0,1,65,7928599,3.0572450160980225,1.4099839925765991,1.585113525390625,-0.5359172224998474,2.1624183654785156,0.0034587206318974495,-0.007215866819024086,26.46,0.01,0.24,0.84,0.0,0.25,0.39,0.21
0.4565060999884736,0,0,0,0,1,65,7928630,3.050743818283081,1.3818608522415161,1.6533756256103516,-0.6194101572036743,2.1832525730133057,0.007180681452155113,-0.004994502756744623,26.48,0.14,0.21,0.9,0.0,0.26,0.34,0.1
0.48780279999482445,0,0,0,0,1,65,7928661,3.048105001449585,1.3366085290908813,1.7078319787979126,-0.8407807946205139,2.0708870887756348,0.0015769804595038295,0.0015174119034782052,26.46,0.0,0.26,0.96,0.0,0.19,0.25,0.0
0.5193789000040852,0,0,0,0,1,65,7928693,3.0495543479919434,1.281385064125061,1.7451587915420532,-1.09585702419281,1.8256152868270874,0.0026414399035274982,0.005905053112655878,26.46,0.09,0.21,0.96,0.0,0.07,0.2,0.0
0.5444584999931976,0,0,0,0,1,65,7928718,3.053048849105835,1.2404789924621582,1.7569193840026855,-1.2266275882720947,1.5290905237197876,0.0027318247593939304,-0.004373497795313597,26.46,0.01,0.12,0.92,0.0,0.01,0.21,0.0
0.5812750000040978,0,0,0,0,1,65,7928755,3.055469274520874,1.1880680322647095,1.7564080953598022,-1.294556736946106,1.0330369472503662,0.003998167812824249,-0.028078988194465637,26.48,0.0,0.01,0.8300000000000001,0.0,0.04,0.23,0.12
0.6064251999778207,0,0,0,0,1,65,7928780,3.052635669708252,1.1576439142227173,1.7523174285888672,-1.2828669548034668,0.7542756199836731,0.002856733975932002,-0.010106164962053299,26.48,0.0,0.0,0.85,0.0,0.0,0.22,0.26
0.6428864999907091,0,0,0,0,1,65,7928816,3.043447494506836,1.1205729246139526,1.7369775772094727,-1.2037612199783325,0.3909304440021515,0.00341689120978117,-0.0042205071076750755,26.48,0.01,0.1,0.9,0.0,0.0,0.24,0.35000000000000003
0.663531799975317,0,0,0,0,1,65,7928837,3.0372815132141113,1.1016536951065063,1.720615267753601,-1.14348566532135,0.16866710782051086,-0.0035778265446424484,-1.5139696188271046e-05,26.490000000000002,0.01,0.07,0.89,0.0,0.0,0.28,0.35000000000000003
0.6907022999948822,0,0,0,0,1,65,7928864,3.0303962230682373,1.0786441564559937,1.6909581422805786,-1.0692704916000366,-0.13305509090423584,0.0036486496683210135,-0.0017026943387463689,26.48,0.0,0.09,0.8,0.0,0.0,0.33,0.28
0.7214946000021882,0,0,0,0,1,65,7928895,3.026125431060791,1.049242615699768,1.648006796836853,-1.0247069597244263,-0.47658565640449524,-2.8806621799049026e-07,0.0017271357355639338,26.48,0.0,0.18,0.74,0.01,0.0,0.4,0.0
0.7521659999911208,0,0,0,0,1,65,7928926,3.031712532043457,1.0091036558151245,1.6040326356887817,-1.0852407217025757,-0.7426822781562805,-0.008496435359120369,0.0031483243219554424,26.48,0.0,0.21,0.81,0.1,0.0,0.4,0.0
0.7839217000000644,0,0,0,0,1,65,7928957,3.047861099243164,0.9572038650512695,1.5702849626541138,-1.2408589124679565,-0.8485881090164185,-0.004770963452756405,0.012200366705656052,26.48,0.0,0.07,0.92,0.07,0.0,0.28,0.0
0.8148835999891162,0,0,0,0,1,65,7928988,3.071204423904419,0.8989126086235046,1.5493206977844238,-1.416874647140503,-0.807472825050354,-0.0028909516986459494,1.6733771190047264e-05,26.48,0.0,0.13,1.05,0.01,0.0,0.16,0.0
0.8455180999881122,0,0,0,0,1,65,7929019,3.0904979705810547,0.8449676632881165,1.5327024459838867,-1.5150662660598755,-0.724910318851471,0.003196225268766284,0.0013448209501802921,26.48,0.12,0.19,1.19,0.13,0.02,0.02,0.0
0.8768576000002213,0,0,0,0,1,65,7929050,3.1088106632232666,0.8104531168937683,1.505346655845642,-1.4267709255218506,-0.7513310313224792,0.0058601670898497105,0.0022734415251761675,26.48,0.22,0.2,0.96,0.0,0.0,0.0,0.0
0.9077127999917138,0,0,0,0,1,65,7929081,3.133453130722046,0.7984368205070496,1.4744113683700562,-1.155145287513733,-0.8217189908027649,0.006122916005551815,0.010165839456021786,26.48,0.0,0.3,1.06,0.11,0.0,0.0,0.0
0.9393659999768715,0,0,0,0,1,65,7929113,3.160233497619629,0.8055953979492188,1.4421974420547485,-0.7749838829040527,-0.8682580590248108,-0.004952794872224331,-0.003154538571834564,26.46,0.0,0.27,0.96,0.18,0.2,0.0,0.0
0.9645501999766566,0,0,0,0,1,65,7929138,3.1833534240722656,0.8303947448730469,1.4092168807983398,-0.3921968340873718,-0.9581536650657654,-0.006027551367878914,-0.001354239764623344,26.48,0.01,0.21,1.06,0.0,0.17,0.0,0.0
1.0022183999826666,0,0,0,0,1,65,7929176,3.2086095809936523,0.9099060893058777,1.345812439918518,0.39886704087257385,-1.1857813596725464,0.001186317065730691,-0.0008673216216266155,26.48,0.08,0.16,1.19,0.0,0.0,0.0,0.0
1.0328116999880876,0,0,0,0,1,65,7929206,3.2169580459594727,0.990184485912323,1.30158269405365,1.015076756477356,-1.2788182497024536,0.0037425169721245766,0.0071168383583426476,26.46,0.16,0.2,1.1500000000000001,0.0,0.0,0.0,0.0
1.0645680000016,0,0,0,0,1,65,7929238,3.218980312347412,1.0822232961654663,1.2642558813095093,1.544542670249939,-1.2532371282577515,0.005550174042582512,-0.003054758533835411,26.48,0.0,0.1,1.1500000000000001,0.05,0.0,0.0,0.01
1.089539699984016,0,0,0,0,1,65,7929263,3.2152678966522217,1.1571327447891235,1.2389453649520874,1.8765162229537964,-1.1920360326766968,0.007982851937413216,0.001934228464961052,26.48,0.01,0.08,1.08,0.1,0.0,0.0,0.15
1.1261316000018269,0,0,0,0,1,65,7929300,3.204695463180542,1.2711585760116577,1.1993173360824585,2.2591354846954346,-1.1469669342041016,-0.003272654954344034,-0.0021422291174530983,26.48,0.03,0.12,0.96,0.0,0.0,0.0,0.26
1.1514752999937627,0,0,0,0,1,65,7929325,3.1962902545928955,1.3424887657165527,1.1717056035995483,2.4012889862060547,-1.132878303527832,0.0008611602243036032,0.0037923655472695827,26.46,0.14,0.14,0.87,0.0,0.0,0.0,0.24
1.1886998999980278,0,0,0,0,1,65,7929362,3.184966564178467,1.432482361793518,1.131055235862732,2.419299364089966,-1.121085286140442,0.0006019846769049764,0.0007430220721289515,26.48,0.08,0.11,0.9,0.0,0.0,0.0,0.21
1.2138874999945983,0,0,0,0,1,65,7929387,3.1783220767974854,1.4831037521362305,1.1013981103897095,2.3339028358459473,-1.1316125392913818,-0.0002344638342037797,-0.009665978141129017,26.46,0.0,0.14,0.85,0.0,0.0,0.05,0.22
1.2518357999797445,0,0,0,0,1,65,7929425,3.1699166297912598,1.5396052598953247,1.0538448095321655,2.063458204269409,-1.1690661907196045,0.0008612154051661491,0.0006224894896149635,26.490000000000002,0.11,0.1,0.9,0.06,0.0,0.15,0.18
1.2829898999771103,0,0,0,0,1,65,7929456,3.163968801498413,1.5641489028930664,1.016517996788025,1.7219159603118896,-1.1813371181488037,-0.006855483632534742,0.0019095607567578554,26.48,0.01,0.03,0.92,0.07,0.0,0.18,0.24
1.314073899993673,0,0,0,0,1,65,7929487,3.1568284034729004,1.5674725770950317,0.9830262064933777,1.2852954864501953,-1.1561466455459595,-0.00835223775357008,0.0051698945462703705,26.46,0.0,0.03,0.88,0.1,0.0,0.11,0.28
1.3454910999862477,0,0,0,0,1,65,7929519,3.1474599838256836,1.5608253479003906,0.9526020884513855,0.8568426370620728,-1.101088047027588,-0.005699662491679192,-0.00011910754255950451,26.48,0.0,0.07,0.84,0.16,0.12,0.08,0.38
1.3703993999806698,0,0,0,0,1,65,7929544,3.1393182277679443,1.5488090515136719,0.9326604008674622,0.5555102825164795,-1.0349427461624146,-0.0005913607310503721,-0.001282648416236043,26.48,0.0,0.07,0.85,0.11,0.28,0.09,0.31
1.408173399977386,0,0,0,0,1,65,7929582,3.132948160171509,1.518896460533142,0.9068384170532227,0.12101081013679504,-0.9152424335479736,0.004945447202771902,0.0033944868482649326,26.46,0.0,0.03,0.96,0.03,0.36,0.04,0.1
1.4397082999930717,0,0,0,0,1,65,7929613,3.1327431201934814,1.4917961359024048,0.8822946548461914,-0.16031764447689056,-0.8730954527854919,0.004621792584657669,0.0004721527802757919,26.48,0.01,0.03,0.97,0.0,0.28,0.0,0.0
1.4696657999884337,0,0,0,0,1,65,7929643,3.13588809967041,1.4692977666854858,0.85212641954422,-0.3236013352870941,-0.902235746383667,0.008530264720320702,0.000626532593742013,26.490000000000002,0.01,0.06,0.96,0.03,0.16,0.0,0.0
1.5012402999855112,0,0,0,0,1,65,7929675,3.14314603805542,1.4511457681655884,0.8178675770759583,-0.39583733677864075,-0.9528909921646118,0.005903092212975025,0.004903689958155155,26.48,0.11,0.0,0.96,0.12,0.11,0.0,0.0
1.5263607999950182,0,0,0,0,1,65,7929700,3.1493465900421143,1.4383624792099,0.7969029545783997,-0.41858404874801636,-0.9374819993972778,0.006009290460497141,-0.006286103744059801,26.46,0.08,0.03,1.02,0.13,0.1,0.0,0.0
1.5629647999885492,0,0,0,0,1,65,7929736,3.1561710834503174,1.4153528213500977,0.7856540679931641,-0.47771555185317993,-0.7609660029411316,0.002372223883867264,0.011937601491808891,26.490000000000002,0.0,0.09,1.1,0.0,0.0,0.0,0.0
1.5836095999984536,0,0,0,0,1,65,7929757,3.160569429397583,1.3974565267562866,0.7889776229858398,-0.5444005727767944,-0.5849000811576843,-0.001546496176160872,0.016060009598731995,26.48,0.01,0.1,0.79,0.0,0.02,0.0,0.0
1.6087280999927316,0,0,0,0,1,65,7929782,3.171996831893921,1.3726569414138794,0.7999709248542786,-0.6428984999656677,-0.3587646484375,-0.0009679777431301773,0.002856822684407234,26.48,0.01,0.16,0.86,0.0,0.09,0.0,0.0
1.6398854999861214,0,0,0,0,1,65,7929813,3.1863527297973633,1.3322621583938599,0.8337185978889465,-0.8137894868850708,0.021806005388498306,-0.0019738103728741407,0.003051978535950184,26.48,0.0,0.5,1.1500000000000001,0.0,0.0,0.12,0.0
1.6708040999947116,0,0,0,0,1,65,7929844,3.2059988975524902,1.28445303440094,0.8968674540519714,-1.01407790184021,0.551059901714325,0.002174037741497159,-0.0015308433212339878,26.48,0.09,0.18,1.27,0.0,0.0,0.23,0.0
1.7021880999964196,0,0,0,0,1,65,7929876,3.2247374057769775,1.2420129776000977,0.9894177317619324,-1.1161564588546753,1.2005137205123901,-0.004781022667884827,-0.0005586816114373505,26.48,0.0,0.0,1.16,0.14,0.0,0.24,0.0
1.7274608000006992,0,0,0,0,1,65,7929901,3.2299787998199463,1.2200260162353516,1.072252631187439,-1.0743052959442139,1.6867773532867432,0.008312745951116085,0.003605049569159746,26.48,0.0,0.07,1.1500000000000001,0.14,0.11,0.22,0.0
1.7643356999906246,0,0,0,0,1,65,7929938,3.2231011390686035,1.1990615129470825,1.1985502243041992,-0.9121752381324768,2.2406764030456543,0.006115609314292669,5.069863982498646e-05,26.46,0.01,0.12,1.1500000000000001,0.0,0.41000000000000003,0.26,0.29
1.7894764999800827,0,0,0,0,1,65,7929963,3.2124745845794678,1.1842330694198608,1.290077805519104,-0.8277803659439087,2.5611178874969482,0.001702492474578321,-0.00910805445164442,26.48,0.0,0.09,1.09,0.0,0.42,0.23,0.4
1.8262807999853976,0,0,0,0,1,65,7930000,3.1957404613494873,1.1543203592300415,1.4184211492538452,-0.8110929131507874,2.8584940433502197,0.004374522250145674,-0.0030364757403731346,26.48,0.01,0.1,0.9400000000000001,0.0,0.23,0.19,0.37
1.8514523999765515,0,0,0,0,1,65,7930025,3.186065673828125,1.12900972366333,1.4928189516067505,-0.8521836996078491,2.8962249755859375,-0.00040405720937997103,0.0010291507933288813,26.48,0.0,0.07,0.88,0.0,0.18,0.17,0.3
1.8887111999792978,0,0,0,0,1,65,7930062,3.1738362312316895,1.0868252515792847,1.5787220001220703,-0.9451078176498413,2.7319233417510986,-0.0002059358957922086,0.00318902637809515,26.46,0.0,0.12,0.8200000000000001,0.0,0.22,0.17,0.25
1.913610499992501,0,0,0,0,1,65,7930087,3.167238235473633,1.055122971534729,1.6165601015090942,-1.0135490894317627,2.4638311862945557,-0.0005083075957372785,0.0003523271298035979,26.48,0.0,0.07,0.92,0.0,0.25,0.25,0.21
1.9509433999774046,0,0,0,0,1,65,7930124,3.1587324142456055,1.0032232999801636,1.645194411277771,-1.1355699300765991,1.9315160512924194,-0.005421211011707783,-0.008852798491716385,26.48,0.0,0.09,0.9,0.0,0.18,0.26,0.14
1.9755333999928553,0,0,0,0,1,65,7930149,3.1554083824157715,0.9707539677619934,1.6464728116989136,-1.1795836687088013,1.5055689811706543,-0.007272075861692429,0.001859785057604313,26.490000000000002,0.0,0.0,0.93,0.0,0.07,0.22,0.12
2.0131294000020716,0,0,0,0,1,65,7930187,3.1486520767211914,0.9341942667961121,1.633689522743225,-1.1195275783538818,0.9017811417579651,-0.002968857064843178,-0.007767212577164173,26.46,0.11,0.0,0.88,0.0,0.0,0.16,0.33
2.045123199990485,0,0,0,0,1,65,7930219,3.1385676860809326,0.9162977337837219,1.6109355688095093,-0.9667856693267822,0.4459080994129181,-0.0074620321393013,-0.0022530497517436743,26.46,0.0,0.0,0.93,0.0,0.0,0.15,0.41000000000000003
2.0704989999940153,0,0,0,0,1,65,7930244,3.128993272781372,0.9053042531013489,1.587925910949707,-0.8394087553024292,0.13218604028224945,0.0024731066077947617,-0.0017952260095626116,26.48,0.08,0.06,0.9400000000000001,0.0,0.0,0.21,0.42
2.107819800003199,0,0,0,0,1,65,7930281,3.117044687271118,0.883061408996582,1.5534111261367798,-0.7532670497894287,-0.2110094577074051,0.0024405806325376034,-0.0019708811305463314,26.48,0.12,0.1,0.9,0.0,0.0,0.26,0.22
2.132551599992439,0,0,0,0,1,65,7930306,3.1139280796051025,0.8613300323486328,1.5332139730453491,-0.7707155346870422,-0.35352981090545654,0.00138482463080436,-0.011869469657540321,26.48,0.0,0.1,0.92,0.0,0.0,0.28,0.01
2.170998999994481,0,0,0,0,1,65,7930344,3.1184499263763428,0.8232361674308777,1.5091814994812012,-0.8448249697685242,-0.4448692798614502,-0.0030781656969338655,6.669375579804182e-05,26.48,0.0,0.0,0.96,0.0,0.0,0.3,0.0
2.201656399993226,0,0,0,0,1,65,7930375,3.1276092529296875,0.7925565838813782,1.4966539144515991,-0.8906323909759521,-0.4375075697898865,-0.002564001362770796,-0.00348450243473053,26.46,0.0,0.03,1.03,0.0,0.0,0.28,0.0
2.2334135999844875,0,0,0,0,1,65,7930407,3.1358554363250732,0.7675015330314636,1.4828481674194336,-0.8711073398590088,-0.4258749485015869,-0.006726495921611786,0.002203244948759675,26.48,0.09,0.04,1.17,0.11,0.0,0.18,0.0
2.2585759999928996,0,0,0,0,1,65,7930432,3.143432855606079,0.7577864527702332,1.467508316040039,-0.7715141773223877,-0.4606257975101471,-0.004316904582083225,-0.0010430860565975308,26.48,0.0,0.03,0.96,0.01,0.0,0.1,0.0
2.294049299991457,0,0,0,0,1,65,7930467,3.1614127159118652,0.7577864527702332,1.443987250328064,-0.5391110777854919,-0.524868369102478,-0.008546296507120132,0.0034198923967778683,26.48,0.0,0.17,0.96,0.17,0.0,0.0,0.0
2.316011199989589,0,0,0,0,1,65,7930489,3.1758933067321777,0.7649450302124023,1.4243011474609375,-0.3750842809677124,-0.5882124900817871,-0.01022249087691307,0.005787428002804518,26.46,0.0,0.29,1.03,0.28,0.05,0.0,0.0
2.3411531999881845,0,0,0,0,1,65,7930515,3.1960418224334717,0.7907670140266418,1.3890196084976196,-0.07134146988391876,-0.7526541352272034,-0.009032690897583961,0.007614239118993282,26.48,0.0,0.23,1.01,0.11,0.23,0.0,0.0
2.3720942999934778,0,0,0,0,1,65,7930546,3.21818470954895,0.8488025665283203,1.3343076705932617,0.444618821144104,-1.0264489650726318,-0.007118322886526585,0.002542516216635704,26.48,0.04,0.15,1.16,0.0,0.22,0.0,0.0
2.402930699987337,0,0,0,0,1,65,7930576,3.2324514389038086,0.9193657040596008,1.2852201461791992,0.9536042213439941,-1.20578134059906,-0.004694110713899136,0.0026208627969026566,26.48,0.0,0.14,1.16,0.0,0.09,0.0,0.0
2.4339607000001706,0,0,0,0,1,65,7930607,3.238323926925659,0.9965760111808777,1.2501941919326782,1.3839547634124756,-1.200268268585205,-0.001972887199372053,0.00806073285639286,26.46,0.0,0.12,1.1400000000000001,0.02,0.0,0.0,0.0
2.465589999977965,0,0,0,0,1,65,7930639,3.2372052669525146,1.0868252515792847,1.2243725061416626,1.780711054801941,-1.086086630821228,-0.0009666018304415047,0.006076178513467312,26.48,0.04,0.1,1.1,0.14,0.0,0.0,0.14
2.4904534999805037,0,0,0,0,1,65,7930664,3.230621576309204,1.164035677909851,1.204686164855957,2.074228286743164,-1.0075057744979858,-0.0028503553476184607,0.0053677866235375404,26.48,0.16,0.05,1.1,0.03,0.0,0.0,0.31
2.5288019999861717,0,0,0,0,1,65,7930702,3.214383363723755,1.284197449684143,1.1727285385131836,2.429251194000244,-0.9483314752578735,-0.0056307995691895485,0.0002328145783394575,26.48,0.0,0.08,0.9500000000000001,0.0,0.0,0.0,0.44
2.5599583000002895,0,0,0,0,1,65,7930733,3.199754476547241,1.3706116676330566,1.147161841392517,2.5424904823303223,-0.9141849875450134,-0.002360162092372775,0.00022256432566791773,26.490000000000002,0.03,0.07,0.96,0.0,0.0,0.0,0.44
2.5906506000028457,0,0,0,0,1,65,7930764,3.185300827026367,1.4432201385498047,1.119805932044983,2.491950273513794,-0.9003225564956665,-0.0012756778160110116,0.00720833009108901,26.48,0.0,0.06,0.92,0.0,0.0,0.0,0.39
2.6210722999821883,0,0,0,0,1,65,7930794,3.172231912612915,1.4984434843063354,1.0898933410644531,2.3299612998962402,-0.9220156669616699,-0.005056684371083975,0.0014168084599077702,26.48,0.06,0.14,0.85,0.01,0.0,0.0,0.41000000000000003
2.6515683000034187,0,0,0,0,1,65,7930825,3.1594197750091553,1.5388383865356445,1.0574241876602173,2.0552313327789307,-0.9569783806800842,-0.008982990868389606,-0.002809299621731043,26.48,0.0,0.1,0.85,0.0,0.0,0.0,0.37
2.6832265999983065,0,0,0,0,1,65,7930857,3.148973226547241,1.558268666267395,1.0259774923324585,1.655155897140503,-0.9663876295089722,-0.004945990163832903,-0.0021698540076613426,26.46,0.09,0.0,0.85,0.02,0.0,0.0,0.33
2.7085729999816976,0,0,0,0,1,65,7930882,3.142059326171875,1.5600582361221313,1.0034793615341187,1.2952953577041626,-0.9518463015556335,-0.010492004454135895,-0.0034137307666242123,26.46,0.0,0.0,0.8200000000000001,0.04,0.02,0.04,0.36
2.744965499994578,0,0,0,0,1,65,7930918,3.1309897899627686,1.555456519126892,0.973822295665741,0.8424760103225708,-0.9127728343009949,-0.013292554765939713,0.0002285096561536193,26.48,0.0,0.01,0.8300000000000001,0.07,0.17,0.07,0.43
2.7656312999897636,0,0,0,0,1,65,7930939,3.1235480308532715,1.5488090515136719,0.9592494964599609,0.6170010566711426,-0.8733838200569153,-0.004715103190392256,0.0024263993836939335,26.48,0.04,0.07,0.87,0.05,0.25,0.1,0.37
2.7907343999831937,0,0,0,0,1,65,7930964,3.116710901260376,1.5352588891983032,0.9441652297973633,0.35754960775375366,-0.8134902715682983,0.0023062932305037975,0.003257366828620434,26.48,0.06,0.03,0.96,0.06,0.25,0.1,0.25
2.821720199979609,0,0,0,0,1,65,7930995,3.1134424209594727,1.5117379426956177,0.9249906539916992,0.05298757180571556,-0.7532569169998169,0.005796394776552916,0.000513021252118051,26.48,0.03,0.03,1.0,0.07,0.19,0.05,0.07
2.851878099987516,0,0,0,0,1,65,7931025,3.115931749343872,1.4887281656265259,0.8991686701774597,-0.17270518839359283,-0.7688379287719727,-0.00048255559522658587,-0.005695171654224396,26.46,0.0,0.01,1.03,0.07,0.15,0.0,0.0
2.8832597000000533,0,0,0,0,1,65,7931057,3.123563766479492,1.4692977666854858,0.8636312484741211,-0.30210480093955994,-0.8635093569755554,0.0007059464114718139,0.011566683650016785,26.48,0.0,0.0,1.02,0.07,0.12,0.0,0.0
2.90854429997853,0,0,0,0,1,65,7931082,3.131784439086914,1.4554920196533203,0.8360195159912109,-0.3558087944984436,-0.924852192401886,0.0006590988487005234,0.011479183100163937,26.46,0.0,0.0,1.02,0.07,0.11,0.0,0.0
2.9448154999990948,0,0,0,0,1,65,7931118,3.141608476638794,1.4306926727294922,0.8094307780265808,-0.45145222544670105,-0.8811710476875305,0.0025809688959270716,0.00837586261332035,26.46,0.08,0.1,1.08,0.0,0.04,0.0,0.0
2.9654510999971535,0,0,0,0,1,65,7931139,3.1470890045166016,1.4120292663574219,0.8043174743652344,-0.530828058719635,-0.7679762244224548,0.013381176628172398,0.00732383644208312,26.46,0.0,0.15,0.93,0.0,0.0,0.0,0.0
3.0064253000018653,0,0,0,0,1,65,7931180,3.1625399589538574,1.3690776824951172,0.8142881393432617,-0.7051267623901367,-0.42756181955337524,0.010967401787638664,0.007142245303839445,26.48,0.01,0.6,0.93,0.0,0.0,0.0,0.0
3.037804199993843,0,0,0,0,1,65,7931211,3.1860127449035645,1.3251036405563354,0.8505926132202148,-0.8909610509872437,-0.011450983583927155,0.003775539342314005,0.007773991208523512,26.48,0.03,0.26,1.01,0.0,0.0,0.21,0.0
3.0688285999931395,0,0,0,0,1,65,7931242,3.2141494750976562,1.273459553718567,0.9224338531494141,-1.1058472394943237,0.6044743657112122,-0.0023156118113547564,0.002036816906183958,26.48,0.11,0.07,1.1400000000000001,0.0,0.0,0.32,0.0
3.09983029999421,0,0,0,0,1,65,7931273,3.2325599193573,1.2299968004226685,1.0188188552856445,-1.2027302980422974,1.290226697921753,0.0013398543233051896,-0.009148290380835533,26.48,0.04,0.0,1.32,0.12,0.0,0.3,0.0
3.1307557999971323,0,0,0,0,1,65,7931304,3.2354142665863037,1.2039190530776978,1.1169939041137695,-1.1168116331100464,1.8233964443206787,0.0013489860575646162,-0.007434171624481678,26.48,0.0,0.14,1.23,0.01,0.15,0.28,0.05
3.161116499977652,0,0,0,0,1,65,7931335,3.2284960746765137,1.1850000619888306,1.21491277217865,-0.9710179567337036,2.18880295753479,0.0061858100816607475,-0.0012808556202799082,26.48,0.06,0.16,1.11,0.0,0.16,0.32,0.18
3.191974699991988,0,0,0,0,1,65,7931365,3.2197043895721436,1.1591781377792358,1.3148771524429321,-0.9233770370483398,2.4890711307525635,0.0009934690315276384,-0.004328959621489048,26.46,0.0,0.13,1.03,0.0,0.18,0.33,0.21
3.2228716999816243,0,0,0,0,1,65,7931396,3.2111051082611084,1.122362494468689,1.4112621545791626,-0.9864203333854675,2.6682393550872803,-0.003499787300825119,-0.005920846946537495,26.46,0.0,0.07,0.91,0.0,0.16,0.28,0.2
3.2542472999775782,0,0,0,0,1,65,7931428,3.2033557891845703,1.0796667337417603,1.495375633239746,-1.0864450931549072,2.6695897579193115,-0.001129304408095777,-0.00441767880693078,26.46,0.0,0.09,0.89,0.0,0.15,0.27,0.16
3.279851699975552,0,0,0,0,1,65,7931453,3.1981725692749023,1.0448964834213257,1.5477867126464844,-1.1547328233718872,2.5541489124298096,-0.002402463462203741,0.004489467479288578,26.48,0.0,0.08,0.9,0.0,0.19,0.3,0.14
3.3177857999980915,0,0,0,0,1,65,7931491,3.1919662952423096,0.9937637448310852,1.5981522798538208,-1.2206175327301025,2.1629858016967773,-0.0014809740241616964,0.0046502575278282166,26.46,0.03,0.03,0.9,0.0,0.22,0.37,0.11
3.348669600003632,0,0,0,0,1,65,7931522,3.187074661254883,0.9549029469490051,1.6155375242233276,-1.231455683708191,1.7272124290466309,0.001250272849574685,0.009886419400572777,26.46,0.0,0.0,0.88,0.0,0.21,0.35000000000000003,0.2
3.379789600003278,0,0,0,0,1,65,7931553,3.180640935897827,0.920388400554657,1.6168159246444702,-1.20149827003479,1.2620645761489868,0.000571482814848423,0.001176198129542172,26.490000000000002,0.0,0.0,0.92,0.0,0.13,0.25,0.34
3.4107079999812413,0,0,0,0,1,65,7931584,3.1688883304595947,0.8920097351074219,1.6122137308120728,-1.127211093902588,0.8689735531806946,-0.0032934965565800667,0.018777620047330856,26.48,0.0,0.0,0.89,0.0,0.0,0.14,0.56
3.4411291999858804,0,0,0,0,1,65,7931615,3.1523373126983643,0.8725792765617371,1.5981522798538208,-0.9945082068443298,0.5114129185676575,0.00822190847247839,0.0051840925589203835,26.48,0.0,0.0,0.91,0.0,0.0,0.07,0.64
3.4723087000020314,0,0,0,0,1,65,7931646,3.134932279586792,0.8592846989631653,1.5738643407821655,-0.8393014073371887,0.15821219980716705,-0.0027381260879337788,0.006046306807547808,26.46,0.0,0.06,0.86,0.0,0.0,0.08,0.52
3.5028261999832466,0,0,0,0,1,65,7931676,3.1236720085144043,0.8452232480049133,1.5447187423706055,-0.7298564910888672,-0.14387762546539307,0.003442944958806038,0.0021322728134691715,26.48,0.0,0.11,0.81,0.0,0.0,0.05,0.21
3.53305509997881,0,0,0,0,1,65,7931706,3.122525930404663,0.8222136497497559,1.5211976766586304,-0.7245510816574097,-0.3279394507408142,0.001729184528812766,-0.000275143189355731,26.46,0.12,0.03,0.96,0.0,0.0,0.01,0.0
3.563687999994727,0,0,0,0,1,65,7931737,3.1298651695251465,0.7866764068603516,1.508414387702942,-0.8314512968063354,-0.3611844778060913,0.003982136957347393,0.004563998430967331,26.48,0.16,0.0,1.06,0.0,0.0,0.02,0.0
3.59504359998391,0,0,0,0,1,65,7931768,3.140756368637085,0.7462814450263977,1.5058578252792358,-0.9659303426742554,-0.28564727306365967,-0.001550332410261035,-0.038260821253061295,26.48,0.03,0.0,1.1400000000000001,0.0,0.0,0.08,0.0
3.625831199984532,0,0,0,0,1,65,7931799,3.1484179496765137,0.7143235206604004,1.5038124322891235,-0.9992783665657043,-0.2145913988351822,-0.0014356774045154452,-0.04166553542017937,26.48,0.03,0.1,1.16,0.04,0.0,0.07,0.0
3.656739899975946,0,0,0,0,1,65,7931830,3.1560840606689453,0.7033300399780273,1.4861717224121094,-0.846056342124939,-0.2884947955608368,0.005815600976347923,-0.008637639693915844,26.490000000000002,0.01,0.17,1.06,0.14,0.0,0.0,0.0
3.688907699979609,0,0,0,0,1,65,7931862,3.1695549488067627,0.7089548110961914,1.4549808502197266,-0.5592178106307983,-0.4780540466308594,-0.00062157167121768,-0.0014355902094393969,26.46,0.01,0.28,1.08,0.28,0.09,0.0,0.0
3.713597199996002,0,0,0,0,1,65,7931887,3.1909830570220947,0.7248058319091797,1.4232784509658813,-0.29942402243614197,-0.6518946290016174,-0.0026504439301788807,-0.0008618016727268696,26.48,0.09,0.1,1.01,0.07,0.2,0.0,0.0
3.7511102999851573,0,0,0,0,1,65,7931925,3.2182276248931885,0.7841197848320007,1.3575729131698608,0.28835368156433105,-0.9929890632629395,-0.005743785295635462,0.000585943169426173,26.48,0.03,0.23,0.96,0.0,0.1,0.0,0.0
3.7820531000033952,0,0,0,0,1,65,7931955,3.2304770946502686,0.8567280769348145,1.298514723777771,0.8525633811950684,-1.2587859630584717,0.0027047647163271904,0.007323074620217085,26.48,0.0,0.25,1.12,0.0,0.02,0.0,0.0
3.8128235999902245,0,0,0,0,1,65,7931986,3.2357075214385986,0.945443332195282,1.245592474937439,1.40097975730896,-1.3963738679885864,0.0016626844881102443,0.004671057220548391,26.48,0.0,0.08,1.19,0.0,0.0,0.0,0.0
3.844529199996032,0,0,0,0,1,65,7932018,3.2355871200561523,1.0477088689804077,1.204941749572754,1.9038116931915283,-1.3695398569107056,0.0030416359659284353,0.0027779422234743834,26.48,0.0,0.06,1.09,0.04,0.0,0.0,0.06
3.8697205999924336,0,0,0,0,1,65,7932043,3.230692148208618,1.1325889825820923,1.181165337562561,2.245110273361206,-1.2773067951202393,0.002983414800837636,0.004368426278233528,26.48,0.12,0.04,0.99,0.0,0.0,0.0,0.3
3.906307899975218,0,0,0,0,1,65,7932080,3.2158656120300293,1.2601650953292847,1.148951530456543,2.6313533782958984,-1.138936996459961,0.0010701946448534727,0.0005836674245074391,26.48,0.03,0.06,0.96,0.0,0.0,0.0,0.43
3.931711799988989,0,0,0,0,1,65,7932105,3.2038886547088623,1.3406991958618164,1.12824285030365,2.7750165462493896,-1.0660176277160645,0.0015546171925961971,0.000912559509743005,26.46,0.06,0.12,0.92,0.0,0.0,0.0,0.39
3.968053799995687,0,0,0,0,1,65,7932141,3.188765525817871,1.4386181831359863,1.0967963933944702,2.768490791320801,-0.9995052814483643,0.0011522453278303146,0.0025709299370646477,26.48,0.08,0.1,0.89,0.03,0.0,0.0,0.29
3.988740599976154,0,0,0,0,1,65,7932162,3.182061195373535,1.4846376180648804,1.0765987634658813,2.663673162460327,-0.9868065118789673,0.004105847328901291,0.0011578964767977595,26.48,0.09,0.1,0.86,0.0,0.0,0.0,0.28
4.0153548999805935,0,0,0,0,1,65,7932189,3.174542188644409,1.5311683416366577,1.0492429733276367,2.4414565563201904,-0.9912593960762024,0.004986881278455257,0.005316044203937054,26.48,0.0,0.11,0.85,0.0,0.0,0.0,0.24
4.046528399980161,0,0,0,0,1,65,7932220,3.167059898376465,1.5644046068191528,1.0167735815048218,2.07387375831604,-1.0052917003631592,0.00699874060228467,0.004088784102350473,26.46,0.0,0.08,0.88,0.0,0.0,0.0,0.21
4.077896599977976,0,0,0,0,1,65,7932251,3.160710573196411,1.576420783996582,0.9853270649909973,1.6179907321929932,-1.0089823007583618,0.003860470140352845,-0.0033550176303833723,26.48,0.03,0.0,0.93,0.03,0.0,0.04,0.23
4.1084970999800134,0,0,0,0,1,65,7932282,3.1544179916381836,1.5743755102157593,0.9551588892936707,1.1515556573867798,-0.9993842244148254,0.0015567070804536343,0.0007182894623838365,26.48,0.03,0.0,0.9,0.14,0.09,0.1,0.41000000000000003
4.138585899985628,0,0,0,0,1,65,7932312,3.1435022354125977,1.5677284002304077,0.9288253784179688,0.7804567813873291,-0.9709054827690125,0.0036380281671881676,0.002298704581335187,26.46,0.0,0.0,0.86,0.15,0.27,0.07,0.45
4.16967449997901,0,0,0,0,1,65,7932343,3.132312536239624,1.5505987405776978,0.9060713648796082,0.41879504919052124,-0.906830370426178,0.003425871953368187,0.0009135126601904631,26.48,0.0,0.03,0.92,0.1,0.31,0.0,0.37
4.201201199990464,0,0,0,0,1,65,7932375,3.124333620071411,1.5229870080947876,0.8845955729484558,0.06009680777788162,-0.8376644849777222,0.0034228984732180834,0.002338991267606616,26.48,0.16,0.04,0.96,0.14,0.23,0.0,0.21
4.2266167999769095,0,0,0,0,1,65,7932400,3.1219851970672607,1.4981876611709595,0.8661880493164062,-0.1801864057779312,-0.8094184398651123,0.008428799919784069,0.0026625734753906727,26.46,0.0,0.07,0.97,0.11,0.18,0.0,0.06
4.262673999997787,0,0,0,0,1,65,7932436,3.1274757385253906,1.4636732339859009,0.8339741826057434,-0.42753514647483826,-0.8272625803947449,-0.004082418046891689,0.0012289814185351133,26.46,0.01,0.0,1.0,0.0,0.05,0.0,0.0
4.283659099979559,0,0,0,0,1,65,7932457,3.1344494819641113,1.4444984197616577,0.8155667185783386,-0.5216947793960571,-0.8431092500686646,0.0006239109206944704,0.0018798625096678734,26.46,0.03,0.0,1.0,0.0,0.0,0.0,0.0
4.309741699980805,0,0,0,0,1,65,7932483,3.1427156925201416,1.4207216501235962,0.7984371185302734,-0.6135544180870056,-0.8097646832466125,-0.0005924565484747291,-0.004878656473010778,26.46,0.04,0.1,1.1,0.02,0.0,0.0,0.0
4.34073329999228,0,0,0,0,1,65,7932514,3.153308153152466,1.3915761709213257,0.7897446751594543,-0.7008647322654724,-0.677751898765564,0.005271479953080416,-0.010997822508215904,26.48,0.0,0.04,1.12,0.0,0.0,0.0,0.0
4.371611099981237,0,0,0,0,1,65,7932545,3.1678547859191895,1.3624305725097656,0.7923011779785156,-0.7640572786331177,-0.4701404869556427,0.006991873495280743,-0.022752707824110985,26.46,0.0,0.12,0.9500000000000001,0.0,0.0,0.0,0.0
4.403754899976775,0,0,0,0,1,65,7932577,3.1839306354522705,1.326637625694275,0.8096863627433777,-0.8518862128257751,-0.20252594351768494,0.004792714491486549,-0.009628535248339176,26.48,0.01,0.41000000000000003,1.11,0.0,0.0,0.2,0.0
4.4287930999998935,0,0,0,0,1,65,7932602,3.1975479125976562,1.2875210046768188,0.8475246429443359,-1.0008260011672974,0.15891896188259125,0.0055316658690571785,-0.006128499750047922,26.46,0.08,0.33,1.03,0.0,0.0,0.37,0.0
4.464809400000377,0,0,0,0,1,65,7932638,3.2185916900634766,1.225650429725647,0.9395634531974792,-1.2333728075027466,0.8894012570381165,-0.002748786238953471,-0.0065744612365961075,26.48,0.0,0.07,1.2,0.01,0.0,0.37,0.0
4.4857107999851,0,0,0,0,1,65,7932659,3.2247354984283447,1.1967605352401733,1.006546974182129,-1.275963544845581,1.3372738361358643,0.0026317820884287357,0.004537353292107582,26.46,0.0,0.08,1.17,0.09,0.0,0.32,0.0
4.511467299977085,0,0,0,0,1,65,7932685,3.223945379257202,1.1719611883163452,1.0909160375595093,-1.2118711471557617,1.8008915185928345,0.005738763138651848,-0.003301070537418127,26.490000000000002,0.0,0.09,1.1300000000000001,0.01,0.05,0.31,0.12
4.543087999976706,0,0,0,0,1,65,7932717,3.2146143913269043,1.1512523889541626,1.1939483880996704,-1.0501470565795898,2.2047722339630127,0.008379781618714333,-0.008647695183753967,26.48,0.0,0.14,1.04,0.0,0.25,0.39,0.27
4.567708899994614,0,0,0,0,1,65,7932741,3.2056374549865723,1.1343787908554077,1.2744823694229126,-0.9642053246498108,2.4556632041931152,-0.0009393758373335004,-0.00034760430571623147,26.46,0.04,0.11,0.98,0.0,0.35000000000000003,0.43,0.28
4.605455399985658,0,0,0,0,1,65,7932779,3.193047046661377,1.101142406463623,1.3915764093399048,-0.926337480545044,2.673179864883423,0.00046269933227449656,0.0005701865302398801,26.48,0.03,0.12,0.88,0.0,0.33,0.4,0.25
4.635789699997986,0,0,0,0,1,65,7932809,3.1849026679992676,1.0730193853378296,1.467763900756836,-0.9260799884796143,2.642914056777954,0.0020670872181653976,0.0007350847590714693,26.48,0.0,0.1,0.91,0.0,0.25,0.38,0.21
4.666451199998846,0,0,0,0,1,65,7932840,3.1767637729644775,1.0400389432907104,1.5339808464050293,-0.9577000737190247,2.5025579929351807,0.00377062801271677,-0.0007878146134316921,26.46,0.0,0.07,0.86,0.0,0.23,0.37,0.22
4.69830349998665,0,0,0,0,1,65,7932872,3.1689205169677734,1.0024563074111938,1.583835244178772,-1.0191318988800049,2.2473907470703125,0.0052299052476882935,-0.005215364508330822,26.46,0.03,0.07,0.84,0.0,0.25,0.36,0.19
4.722680599981686,0,0,0,0,1,65,7932896,3.1641623973846436,0.9753559231758118,1.607100486755371,-1.0467588901519775,1.97696852684021,0.010066249407827854,0.00400308845564723,26.46,0.0,0.03,0.91,0.0,0.25,0.33,0.21
4.7605815999850165,0,0,0,0,1,65,7932934,3.155519485473633,0.9395630955696106,1.6191167831420898,-1.0183801651000977,1.4414808750152588,0.011949063278734684,-0.014350168406963348,26.48,0.0,0.0,0.97,0.0,0.12,0.19,0.32
4.790559099987149,0,0,0,0,1,65,7932964,3.146488904953003,0.9173204302787781,1.6152817010879517,-0.9464185833930969,1.0136178731918335,0.002143245656043291,-0.010373162105679512,26.48,0.09,0.0,0.93,0.0,0.0,0.12,0.52
4.8216007000009995,0,0,0,0,1,65,7932995,3.132018804550171,0.899935245513916,1.6042882204055786,-0.8422232866287231,0.6389985680580139,-0.0024485313333570957,0.00023718003649264574,26.46,0.12,0.0,0.9,0.0,0.0,0.06,0.58
4.853781899990281,0,0,0,0,1,65,7933027,3.116692543029785,0.8876633644104004,1.5815342664718628,-0.7135759592056274,0.26584088802337646,0.00138688157312572,0.003806296270340681,26.48,0.11,0.07,0.88,0.0,0.0,0.05,0.48
4.877760399976978,0,0,0,0,1,65,7933051,3.1075947284698486,0.8787152171134949,1.5582689046859741,-0.6321373581886292,-0.003598005510866642,0.005242058541625738,0.0013427595840767026,26.48,0.11,0.12,0.88,0.0,0.0,0.07,0.29
4.915979899989907,0,0,0,0,1,65,7933089,3.104235887527466,0.8528931736946106,1.525032639503479,-0.632914125919342,-0.2979699671268463,0.007942553609609604,0.005451687145978212,26.48,0.08,0.12,0.91,0.0,0.0,0.14,0.0
4.946884699980728,0,0,0,0,1,65,7933120,3.112910509109497,0.8171003460884094,1.5109710693359375,-0.7645951509475708,-0.3532525897026062,-0.0006335459765978158,0.004795100539922714,26.46,0.0,0.0,0.98,0.0,0.0,0.19,0.0
4.978242299985141,0,0,0,0,1,65,7933152,3.128763198852539,0.7764498591423035,1.5045795440673828,-0.9151411056518555,-0.3075265884399414,0.004105906933546066,-0.017749672755599022,26.48,0.12,0.0,1.17,0.0,0.0,0.18,0.0
5.002710499975365,0,0,0,0,1,65,7933176,3.139371871948242,0.7534400820732117,1.4981880187988281,-0.9410659074783325,-0.28679484128952026,-0.0023017791099846363,-0.004478839226067066,26.48,0.0,0.02,1.12,0.08,0.0,0.13,0.0
5.0408514000009745,0,0,0,0,1,65,7933214,3.15618634223938,0.7419352531433105,1.4762009382247925,-0.7549676299095154,-0.36897793412208557,-0.002351055620238185,0.0007726161275058985,26.490000000000002,0.01,0.13,1.03,0.0,0.0,0.04,0.0
5.072840699984226,0,0,0,0,1,65,7933246,3.1707143783569336,0.7513947486877441,1.446799635887146,-0.46258407831192017,-0.51448655128479,-0.0047112577594816685,0.0015644344966858625,26.48,0.0,0.26,1.03,0.22,0.07,0.0,0.0
5.096586699975887,0,0,0,0,1,65,7933270,3.1874380111694336,0.7736374735832214,1.4153528213500977,-0.17409078776836395,-0.6774922609329224,-0.0033517314586788416,0.007046272978186607,26.48,0.0,0.21,0.9500000000000001,0.15,0.16,0.0,0.0
5.134041999990586,0,0,0,0,1,65,7933307,3.210157871246338,0.8398544192314148,1.3534822463989258,0.4368160367012024,-0.9921250939369202,0.0010631328914314508,0.005229129455983639,26.48,0.11,0.2,1.09,0.0,0.14,0.0,0.0
5.164944499992998,0,0,0,0,1,65,7933338,3.223296880722046,0.917576014995575,1.3010715246200562,1.0026766061782837,-1.1968111991882324,-0.0021739911753684282,0.003353075124323368,26.46,0.0,0.13,1.25,0.0,0.12,0.0,0.0
5.196586099977139,0,0,0,0,1,65,7933370,3.227393627166748,1.0101262331008911,1.2581199407577515,1.532211422920227,-1.2478728294372559,-0.006765726488083601,0.003995517268776894,26.48,0.0,0.11,1.16,0.0,0.04,0.0,0.0
5.220670499984408,0,0,0,0,1,65,7933394,3.2268190383911133,1.085802674293518,1.2322978973388672,1.8867305517196655,-1.2126060724258423,-0.011575073935091496,0.0032949356827884912,26.48,0.06,0.07,1.08,0.06,0.0,0.0,0.13
5.25871619998361,0,0,0,0,1,65,7933432,3.21649432182312,1.2110776901245117,1.1965049505233765,2.3484013080596924,-1.1205414533615112,-0.005038028582930565,-0.002926417626440525,26.48,0.19,0.08,0.9500000000000001,0.01,0.0,0.0,0.34
5.290071800001897,0,0,0,0,1,65,7933463,3.2038676738739014,1.3097639083862305,1.1663366556167603,2.585993528366089,-1.0715824365615845,0.0016821633325889707,-0.004652479663491249,26.48,0.11,0.12,0.92,0.02,0.0,0.0,0.38
5.32182329997886,0,0,0,0,1,65,7933495,3.1912002563476562,1.3964338302612305,1.1359128952026367,2.631178617477417,-1.0345019102096558,-0.0006956072174943984,-0.0009474005782976747,26.46,0.0,0.15,0.9,0.02,0.0,0.0,0.31
5.345686999993632,0,0,0,0,1,65,7933519,3.183427572250366,1.4496116638183594,1.1116247177124023,2.548870325088501,-1.0266163349151611,-0.008698130026459694,0.0010405625216662884,26.48,0.11,0.14,0.86,0.01,0.0,0.0,0.22
5.384354599984363,0,0,0,0,1,65,7933558,3.1736533641815186,1.5153173208236694,1.0671392679214478,2.2660036087036133,-1.0586448907852173,0.0013341860612854362,-0.0006498581496998668,26.46,0.0,0.14,0.8300000000000001,0.06,0.0,0.0,0.14
5.414622699987376,0,0,0,0,1,65,7933588,3.1681559085845947,1.547275185585022,1.0316022634506226,1.9508851766586304,-1.0917515754699707,-0.00022345082834362984,0.0012488386128097773,26.48,0.01,0.14,0.88,0.0,0.0,0.0,0.12
5.445604299980914,0,0,0,0,1,65,7933619,3.1632182598114014,1.5618480443954468,0.9986216425895691,1.5486397743225098,-1.0911989212036133,-0.004485609475523233,0.004757925868034363,26.48,0.0,0.05,0.92,0.0,0.0,0.0,0.17
5.476751999987755,0,0,0,0,1,65,7933650,3.1581501960754395,1.5626150369644165,0.969476044178009,1.126141905784607,-1.0510128736495972,-0.002130310982465744,-0.0028137201443314552,26.46,0.0,0.0,0.93,0.07,0.02,0.0,0.34
5.507575399999041,0,0,0,0,1,65,7933681,3.1465799808502197,1.5610809326171875,0.9433981776237488,0.7963345646858215,-0.9914013743400574,-0.009419316425919533,-0.006970752030611038,26.48,0.09,0.0,0.85,0.12,0.16,0.0,0.5700000000000001
5.538098999997601,0,0,0,0,1,65,7933711,3.1306214332580566,1.554433822631836,0.9211556315422058,0.5259602665901184,-0.9257300496101379,-0.0017441482050344348,0.001425434136763215,26.48,0.01,0.07,0.85,0.1,0.26,0.0,0.53
5.568532699981006,0,0,0,0,1,65,7933742,3.1174845695495605,1.5388383865356445,0.8989127278327942,0.24819864332675934,-0.8657783269882202,-0.007816544733941555,0.00030432018684223294,26.48,0.08,0.11,0.86,0.03,0.25,0.0,0.31
5.599010799982352,0,0,0,0,1,65,7933772,3.112584352493286,1.5181294679641724,0.8738577961921692,-0.0011286009103059769,-0.8509838581085205,0.001522755715996027,0.0012078882427886128,26.46,0.06,0.1,0.87,0.01,0.16,0.0,0.02
5.630076799978269,0,0,0,0,1,65,7933803,3.1176819801330566,1.493841528892517,0.8467575907707214,-0.21875770390033722,-0.8576723337173462,-0.002314610406756401,-0.005620566662400961,26.48,0.0,0.06,0.98,0.01,0.06,0.0,0.0
5.661064199986868,0,0,0,0,1,65,7933834,3.1302194595336914,1.467763900756836,0.8245146870613098,-0.38766568899154663,-0.8259215354919434,-0.00020592560758814216,-0.002282756147906184,26.46,0.0,0.0,1.1,0.03,0.0,0.0,0.0
5.69160930000362,0,0,0,0,1,65,7933865,3.1428520679473877,1.4427088499069214,0.8112201690673828,-0.5039421916007996,-0.7238896489143372,-0.0013259247643873096,0.005904787685722113,26.48,0.0,0.03,1.19,0.0,0.0,0.0,0.0
5.722850999998627,0,0,0,0,1,65,7933896,3.1542727947235107,1.4207216501235962,0.8071295619010925,-0.56134432554245,-0.5636849403381348,0.0030955513939261436,-0.022793972864747047,26.48,0.0,0.0,1.1400000000000001,0.0,0.0,0.0,0.0
5.754288900003303,0,0,0,0,1,65,7933928,3.1663694381713867,1.3972007036209106,0.8099419474601746,-0.6050161123275757,-0.3825348913669586,0.012316349893808365,-0.03733415529131889,26.48,0.0,0.28,0.98,0.03,0.0,0.0,0.0
5.778822199994465,0,0,0,0,1,65,7933952,3.1795098781585693,1.3716343641281128,0.8222138285636902,-0.6905517578125,-0.20309136807918549,0.006733737885951996,-0.018202712759375572,26.48,0.01,0.31,1.07,0.0,0.0,0.07,0.0
5.816483699978562,0,0,0,0,1,65,7933990,3.2044920921325684,1.3069515228271484,0.8820390701293945,-1.0015175342559814,0.34331145882606506,-0.0037794909439980984,-0.011172439903020859,26.48,0.0,0.24,0.88,0.0,0.0,0.06,0.0
5.8476751999987755,0,0,0,0,1,65,7934021,3.223010301589966,1.2455922365188599,0.9687089920043945,-1.279919981956482,1.0012365579605103,-0.0009085796773433685,-0.0029871247243136168,26.46,0.09,0.07,1.18,0.11,0.0,0.0,0.0
5.879805399978068,0,0,0,0,1,65,7934053,3.2298593521118164,1.1990615129470825,1.0735307931900024,-1.3559149503707886,1.6528608798980713,-0.003708820790052414,-0.006307004950940609,26.46,0.01,0.08,1.18,0.0,0.08,0.0,0.0
5.9037190999952145,0,0,0,0,1,65,7934077,3.227452516555786,1.1788641214370728,1.150230050086975,-1.253643274307251,2.0045437812805176,0.002323504537343979,-0.008874067105352879,26.48,0.0,0.15,1.11,0.0,0.15,0.0,0.14
5.941902599995956,0,0,0,0,1,65,7934115,3.2165050506591797,1.1571327447891235,1.2808738946914673,-1.0221364498138428,2.4596688747406006,0.000533737416844815,-0.0033482108265161514,26.48,0.12,0.1,1.07,0.0,0.24,0.09,0.29
5.972623499983456,0,0,0,0,1,65,7934146,3.2047359943389893,1.1341229677200317,1.3856960535049438,-0.9316340684890747,2.728524923324585,-0.0029618372209370136,-0.0053946184925735,26.490000000000002,0.0,0.13,0.92,0.0,0.26,0.13,0.32
6.004072299983818,0,0,0,0,1,65,7934177,3.193240165710449,1.1036990880966187,1.4790130853652954,-0.9368042349815369,2.813582181930542,-0.0016702298307791352,-0.003786848159506917,26.48,0.03,0.14,0.88,0.0,0.23,0.12,0.28
6.035629799996968,0,0,0,0,1,65,7934209,3.1832432746887207,1.066627860069275,1.558524489402771,-0.9967312216758728,2.731778621673584,0.001124560832977295,-0.002829418983310461,26.48,0.19,0.14,0.87,0.0,0.23,0.15,0.25
6.0597041999862995,0,0,0,0,1,65,7934233,3.1771299839019775,1.0362038612365723,1.6009646654129028,-1.05511474609375,2.5338211059570312,0.0025990670546889305,-0.0005928950849920511,26.48,0.01,0.14,0.88,0.0,0.2,0.18,0.14
6.096815400000196,0,0,0,0,1,65,7934270,3.1716079711914062,0.9886505007743835,1.6375246047973633,-1.1296839714050293,2.048220157623291,0.005864576902240515,-0.006269259378314018,26.46,0.0,0.08,0.91,0.0,0.1,0.22,0.12
6.127645200002007,0,0,0,0,1,65,7934301,3.167578935623169,0.9526019096374512,1.6444274187088013,-1.1436877250671387,1.5510926246643066,0.004690365865826607,-0.01955636776983738,26.46,0.0,0.02,0.9500000000000001,0.0,0.0,0.2,0.19
6.158737299992936,0,0,0,0,1,65,7934332,3.1614959239959717,0.9211552739143372,1.641103744506836,-1.1126458644866943,1.0864877700805664,-0.0032368593383580446,-0.02245144359767437,26.46,0.01,0.0,0.9500000000000001,0.0,0.0,0.17,0.44
6.189709700003732,0,0,0,0,1,65,7934363,3.1485676765441895,0.8958446383476257,1.6318999528884888,-1.0327447652816772,0.7058519124984741,-0.005379228387027979,-0.007880904711782932,26.48,0.06,0.0,0.88,0.0,0.0,0.2,0.61
6.220684899977641,0,0,0,0,1,65,7934394,3.1324262619018555,0.875647246837616,1.6137479543685913,-0.9280846118927002,0.35445618629455566,-0.013704732060432434,-0.001294621848501265,26.48,0.14,0.03,0.85,0.0,0.0,0.26,0.52
6.251518599980045,0,0,0,0,1,65,7934425,3.1201412677764893,0.8567280769348145,1.5889486074447632,-0.8359208703041077,0.03836846351623535,-0.008584012277424335,-0.002722732722759247,26.48,0.0,0.1,0.8300000000000001,0.0,0.0,0.29,0.3
6.282945099985227,0,0,0,0,1,65,7934456,3.1166529655456543,0.8342297673225403,1.5618481636047363,-0.7987583875656128,-0.21689659357070923,0.0007353510009124875,-0.007685517892241478,26.48,0.12,0.04,0.85,0.0,0.0,0.36,0.0
6.314023199985968,0,0,0,0,1,65,7934487,3.123488426208496,0.8050840497016907,1.5357704162597656,-0.8303524255752563,-0.3926459550857544,0.003936389461159706,0.0026092694606631994,26.48,0.0,0.0,0.93,0.0,0.0,0.39,0.0
6.344946600002004,0,0,0,0,1,65,7934518,3.1348540782928467,0.7731261253356934,1.5117381811141968,-0.8855124115943909,-0.49476349353790283,0.0025850748643279076,0.0035106444265693426,26.48,0.09,0.09,1.03,0.02,0.0,0.31,0.0
6.37589999998454,0,0,0,0,1,65,7934549,3.150242567062378,0.7490938305854797,1.4854048490524292,-0.8669095635414124,-0.5846186876296997,0.001469942508265376,0.005673723295331001,26.48,0.16,0.0,1.11,0.17,0.05,0.12,0.0
6.407839399995282,0,0,0,0,1,65,7934581,3.171703815460205,0.7421908378601074,1.4544693231582642,-0.7021703124046326,-0.6881057024002075,-0.0010264302836731076,0.006766526028513908,26.48,0.0,0.22,1.0,0.15,0.04,0.0,0.0
6.43171999999322,0,0,0,0,1,65,7934605,3.1894469261169434,0.7493494153022766,1.4271135330200195,-0.4901408851146698,-0.7815526723861694,-0.003365658223628998,0.005860762670636177,26.48,0.0,0.27,1.07,0.2,0.17,0.0,0.0
6.468791899998905,0,0,0,0,1,65,7934642,3.2199411392211914,0.7923009991645813,1.3685665130615234,0.0118462685495615,-1.0207432508468628,0.005563274957239628,0.003805477637797594,26.48,0.01,0.21,0.98,0.0,0.27,0.0,0.0
6.499913399980869,0,0,0,0,1,65,7934673,3.238886594772339,0.8610744476318359,1.3089971542358398,0.6033722162246704,-1.2630410194396973,0.0014305858640000224,0.002278053667396307,26.44,0.0,0.14,1.17,0.0,0.19,0.0,0.0
6.531007999990834,0,0,0,0,1,65,7934704,3.249480724334717,0.9467217326164246,1.259142518043518,1.1942451000213623,-1.3815487623214722,-0.005757100414484739,0.0011978448601439595,26.48,0.0,0.07,1.23,0.0,0.1,0.0,0.0
6.56191079999553,0,0,0,0,1,65,7934735,3.252612590789795,1.0402945280075073,1.226417899131775,1.7010380029678345,-1.3043678998947144,-0.008826036006212234,0.00014212378300726414,26.48,0.12,0.06,1.17,0.03,0.0,0.0,0.0
6.593444899976021,0,0,0,0,1,65,7934767,3.2487199306488037,1.1425600051879883,1.2041749954223633,2.1245923042297363,-1.1325281858444214,-0.007716447580605745,-0.003326808102428913,26.48,0.0,0.04,1.02,0.14,0.0,0.0,0.24
6.617808699986199,0,0,0,0,1,65,7934791,3.2402286529541016,1.2210487127304077,1.1880680322647095,2.378854513168335,-1.020948052406311,-0.006047534290701151,-0.0019484119256958365,26.48,0.19,0.1,0.99,0.08,0.0,0.0,0.36
6.654812399996445,0,0,0,0,1,65,7934828,3.2238235473632812,1.3368641138076782,1.1591781377792358,2.6235897541046143,-0.9362751245498657,0.000896163925062865,-0.005004267208278179,26.46,0.03,0.09,0.96,0.0,0.0,0.0,0.38
6.686925199988764,0,0,0,0,1,65,7934860,3.210740566253662,1.4204660654067993,1.1305437088012695,2.6323537826538086,-0.9208430051803589,-0.004055441357195377,0.005821602419018745,26.490000000000002,0.16,0.14,0.9,0.01,0.0,0.0,0.29
6.710989299986977,0,0,0,0,1,65,7934884,3.2028143405914307,1.4703203439712524,1.1065114736557007,2.517479181289673,-0.9331391453742981,-0.00019555079052224755,0.0051308562979102135,26.46,0.0,0.12,0.87,0.03,0.0,0.0,0.23
6.750119499978609,0,0,0,0,1,65,7934923,3.1921300888061523,1.5281003713607788,1.0627931356430054,2.1766741275787354,-0.9912660121917725,-0.005645975936204195,-0.0010334509424865246,26.46,0.0,0.12,0.88,0.03,0.0,0.0,0.2
6.780755899992073,0,0,0,0,1,65,7934954,3.185746431350708,1.552899718284607,1.0252103805541992,1.8032125234603882,-1.050309419631958,-0.003836005227640271,-0.0008959576371125877,26.48,0.03,0.06,0.92,0.0,0.0,0.0,0.15
6.811169799999334,0,0,0,0,1,65,7934985,3.180537462234497,1.5621036291122437,0.9883950352668762,1.3904842138290405,-1.0911459922790527,-0.005396207328885794,-0.0009530941024422646,26.46,0.12,0.0,0.89,0.0,0.0,0.0,0.25
6.8422834999801125,0,0,0,0,1,65,7935016,3.173328399658203,1.56235933303833,0.9541361927986145,1.0029830932617188,-1.0995550155639648,-0.0036886364687234163,0.006920922547578812,26.46,0.0,0.0,0.91,0.01,0.03,0.0,0.42
6.8731700999778695,0,0,0,0,1,65,7935047,3.16017484664917,1.5618480443954468,0.9244791865348816,0.7177563905715942,-1.0634868144989014,-0.005085608456283808,0.00023194286040961742,26.48,0.01,0.0,0.88,0.07,0.12,0.0,0.6
6.9042045999958646,0,0,0,0,1,65,7935078,3.143298864364624,1.5541781187057495,0.9024922251701355,0.46132200956344604,-0.9724960923194885,-0.0010425723157823086,0.0020690332166850567,26.46,0.0,0.07,0.85,0.05,0.2,0.0,0.52
6.934917999984464,0,0,0,0,1,65,7935108,3.1313395500183105,1.5347477197647095,0.8861296772956848,0.17231152951717377,-0.8574649095535278,0.004783364478498697,0.015803251415491104,26.46,0.12,0.12,0.88,0.03,0.19,0.0,0.29
6.966523099981714,0,0,0,0,1,65,7935140,3.1268887519836426,1.5061134099960327,0.8692560195922852,-0.12794655561447144,-0.7612462639808655,-0.00446788314729929,0.006625272799283266,26.48,0.03,0.07,0.96,0.0,0.09,0.0,0.02
6.990775699989172,0,0,0,0,1,65,7935164,3.1296699047088623,1.4843820333480835,0.854938805103302,-0.3038404881954193,-0.7180598974227905,-0.00035475631011649966,-0.00010877737804548815,26.48,0.12,0.02,0.99,0.0,0.02,0.0,0.0
7.030580199992983,0,0,0,0,1,65,7935204,3.14219069480896,1.4524240493774414,0.8342301249504089,-0.4750785231590271,-0.6541475653648376,0.004582603927701712,0.0022647432051599026,26.44,0.0,0.0,1.06,0.01,0.03,0.0,0.0
7.061384599976009,0,0,0,0,1,65,7935235,3.152636766433716,1.432737946510315,0.8224694132804871,-0.5189356803894043,-0.5818647146224976,0.0003479948209132999,-0.008685492910444736,26.46,0.0,0.09,1.1300000000000001,0.0,0.06,0.1,0.0
7.092497099976754,0,0,0,0,1,65,7935266,3.1678788661956787,1.416886806488037,0.8199129104614258,-0.5197948813438416,-0.4516899585723877,0.0013096362818032503,0.016455434262752533,26.490000000000002,0.03,0.0,0.9400000000000001,0.06,0.16,0.12,0.0
7.122911999991629,0,0,0,0,1,65,7935296,3.1843180656433105,1.4000129699707031,0.8252817988395691,-0.5217604637145996,-0.2899320423603058,0.0024291554000228643,0.015323267318308353,26.48,0.0,0.22,0.9400000000000001,0.0,0.2,0.2,0.0
7.153778599982616,0,0,0,0,1,65,7935327,3.202100992202759,1.3619190454483032,0.8569841384887695,-0.6853178143501282,0.03872276842594147,0.0009968782542273402,0.00874669011682272,26.48,0.0,0.37,1.1,0.0,0.01,0.35000000000000003,0.0
7.184779699979117,0,0,0,0,1,65,7935358,3.219466209411621,1.30234956741333,0.9239680171012878,-1.0190911293029785,0.595434844493866,0.009185184724628925,-0.0031190623994916677,26.48,0.03,0.21,1.1500000000000001,0.0,0.0,0.25,0.0
7.215793899988057,0,0,0,0,1,65,7935389,3.234795570373535,1.2463592290878296,1.0149837732315063,-1.2585594654083252,1.2356206178665161,-0.0008570299251005054,-0.003825092688202858,26.46,0.0,0.05,1.25,0.17,0.0,0.01,0.0
7.246259099978488,0,0,0,0,1,65,7935420,3.23935866355896,1.2138900756835938,1.108812689781189,-1.2244611978530884,1.74020516872406,-0.0052372789941728115,-0.0010710080387070775,26.48,0.0,0.06,1.16,0.03,0.0,0.0,0.01
7.276895599992713,0,0,0,0,1,65,7935450,3.233410358428955,1.1959935426712036,1.2013626098632812,-1.0545629262924194,2.0982913970947266,-0.0032764687202870846,0.0011143090669065714,26.48,0.0,0.07,1.1,0.0,0.2,0.12,0.24
7.307734399975743,0,0,0,0,1,65,7935481,3.2218363285064697,1.1757961511611938,1.307207465171814,-0.9316964745521545,2.452606678009033,-0.0046416400000452995,-0.006593798287212849,26.48,0.01,0.03,1.08,0.0,0.3,0.19,0.36
7.33871799998451,0,0,0,0,1,65,7935512,3.207792043685913,1.1479288339614868,1.40768301486969,-0.9104458093643188,2.6801705360412598,0.003983943723142147,0.0006412973743863404,26.48,0.0,0.1,0.96,0.0,0.22,0.15,0.39
7.369700199982617,0,0,0,0,1,65,7935543,3.195377826690674,1.113669991493225,1.49435293674469,-0.9568089842796326,2.7161338329315186,6.806835881434381e-05,-0.004234880208969116,26.46,0.01,0.1,0.92,0.0,0.16,0.1,0.31
7.400391699979082,0,0,0,0,1,65,7935574,3.185136556625366,1.0740419626235962,1.563126564025879,-1.0430558919906616,2.5933175086975098,-0.0006943786283954978,-0.005102416500449181,26.46,0.11,0.12,0.8200000000000001,0.0,0.18,0.13,0.24
7.430827000003774,0,0,0,0,1,65,7935604,3.1779873371124268,1.0323690176010132,1.607100486755371,-1.13471519947052,2.3064827919006348,0.005700425710529089,-0.0042363181710243225,26.48,0.09,0.07,0.84,0.0,0.22,0.22,0.15
7.462230899982387,0,0,0,0,1,65,7935636,3.172945737838745,0.98890620470047,1.6308773756027222,-1.2008715867996216,1.8718280792236328,0.005922393407672644,0.0026363148353993893,26.48,0.12,0.05,0.89,0.0,0.2,0.27,0.09
7.486931299994467,0,0,0,0,1,65,7935660,3.170736074447632,0.961550235748291,1.633689522743225,-1.203284502029419,1.4919909238815308,0.0034045064821839333,0.007887243293225765,26.46,0.09,0.0,0.92,0.0,0.14,0.25,0.11
7.523999099998036,0,0,0,0,1,65,7935697,3.1654129028320312,0.9270356297492981,1.6283206939697266,-1.1141674518585205,0.9605246782302856,0.0064287553541362286,0.020943686366081238,26.46,0.01,0.0,0.91,0.0,0.0,0.15,0.38
7.554889999999432,0,0,0,0,1,65,7935728,3.1542696952819824,0.9096505045890808,1.6155375242233276,-0.9667592644691467,0.582677960395813,0.004695422016084194,0.00814236979931593,26.46,0.01,0.0,0.9400000000000001,0.0,0.0,0.14,0.62
7.585554799996316,0,0,0,0,1,65,7935759,3.1369400024414062,0.8976343274116516,1.5925277471542358,-0.8035075068473816,0.22300119698047638,0.00938929058611393,0.0036257889587432146,26.48,0.0,0.0,0.9,0.0,0.0,0.18,0.71
7.616668899980141,0,0,0,0,1,65,7935790,3.118161916732788,0.8835728764533997,1.561336874961853,-0.6984561085700989,-0.11385491490364075,0.001221268204972148,0.0012366243172436953,26.48,0.0,0.12,0.78,0.0,0.0,0.18,0.46
7.6477767000033055,0,0,0,0,1,65,7935821,3.1102294921875,0.858006477355957,1.5324468612670898,-0.7151920199394226,-0.3486921191215515,0.0007776824058964849,-0.006079224869608879,26.46,0.01,0.25,0.73,0.14,0.0,0.12,0.07
7.679654499981552,0,0,0,0,1,65,7935853,3.116032123565674,0.8142879605293274,1.5178741216659546,-0.8855898976325989,-0.39468029141426086,-0.0019997586496174335,0.007676877547055483,26.48,0.08,0.02,0.91,0.07,0.0,0.08,0.0
7.703869499993743,0,0,0,0,1,65,7935877,3.128571033477783,0.7761940956115723,1.5158287286758423,-1.0453022718429565,-0.3275429606437683,-0.010201108641922474,-0.01838316023349762,26.48,0.12,0.0,1.01,0.02,0.0,0.08,0.0
7.740718999993987,0,0,0,0,1,65,7935914,3.147930860519409,0.7271067500114441,1.5119937658309937,-1.153099775314331,-0.24072431027889252,0.0034550954587757587,-0.0230950266122818,26.46,0.04,0.01,1.35,0.0,0.01,0.14,0.0
7.771273999998812,0,0,0,0,1,65,7935945,3.1588528156280518,0.705119788646698,1.4948643445968628,-1.0483843088150024,-0.3098582923412323,0.003025402780622244,-0.010152488946914673,26.46,0.2,0.03,1.1400000000000001,0.0,0.0,0.13,0.0
7.802659399982076,0,0,0,0,1,65,7935976,3.1715757846832275,0.7043526768684387,1.467763900756836,-0.775770902633667,-0.46127328276634216,0.003741745837032795,-0.005572371184825897,26.48,0.0,0.36,1.02,0.15,0.01,0.0,0.0
7.833922799996799,0,0,0,0,1,65,7936007,3.1921420097351074,0.7143235206604004,1.4350391626358032,-0.47773441672325134,-0.622868537902832,0.006514695007354021,0.0029848129488527775,26.46,0.0,0.28,0.91,0.24,0.31,0.0,0.0
7.865585599996848,0,0,0,0,1,65,7936039,3.2156691551208496,0.7501165270805359,1.387997031211853,-0.05067932605743408,-0.8498743772506714,-0.0005013651680201292,-0.001896093599498272,26.48,0.0,0.28,0.87,0.0,0.24,0.0,0.0
7.890146499994444,0,0,0,0,1,65,7936064,3.23049259185791,0.802271842956543,1.3422333002090454,0.4198661148548126,-1.0701533555984497,0.0023838886991143227,-0.003007067833095789,26.46,0.0,0.25,1.1,0.0,0.13,0.0,0.0
7.927929700003006,0,0,0,0,1,65,7936101,3.2446208000183105,0.90223628282547,1.2795957326889038,1.144823431968689,-1.2843871116638184,-0.008831682614982128,0.0036556848790496588,26.48,0.0,0.14,1.24,0.0,0.02,0.0,0.0
7.959814399975585,0,0,0,0,1,65,7936133,3.2464942932128906,0.9988770484924316,1.2417573928833008,1.6824675798416138,-1.268112063407898,0.0014437898062169552,0.0034937795717269182,26.48,0.03,0.14,1.08,0.03,0.0,0.01,0.0
7.984017399983713,0,0,0,0,1,65,7936157,3.2439756393432617,1.0768543481826782,1.2207931280136108,2.0192911624908447,-1.1817822456359863,-0.0058242082595825195,-0.0010650751646608114,26.46,0.11,0.04,1.04,0.11,0.0,0.0,0.17
8.022249100002227,0,0,0,0,1,65,7936196,3.231367826461792,1.20596444606781,1.189857840538025,2.450343608856201,-1.0434801578521729,-0.009668305516242981,0.006383442785590887,26.46,0.0,0.12,0.92,0.07,0.0,0.0,0.37
8.053112099994905,0,0,0,0,1,65,7936226,3.2182958126068115,1.3033722639083862,1.1622461080551147,2.668727397918701,-1.0013489723205566,-0.009496975690126419,0.006339384242892265,26.490000000000002,0.0,0.1,0.92,0.01,0.0,0.0,0.41000000000000003
8.084026700002141,0,0,0,0,1,65,7936257,3.20497465133667,1.3915761709213257,1.1323333978652954,2.729048252105713,-0.9884684085845947,-0.007596374489367008,0.0010272713843733072,26.48,0.0,0.15,0.85,0.05,0.0,0.0,0.36
8.11454579999554,0,0,0,0,1,65,7936288,3.193885564804077,1.4611164331436157,1.1008869409561157,2.605814218521118,-0.9945983290672302,-4.525894473772496e-05,0.0022149067372083664,26.46,0.01,0.1,0.86,0.03,0.0,0.0,0.27
8.144925200002035,0,0,0,0,1,65,7936318,3.1850228309631348,1.5109710693359375,1.0676507949829102,2.3584656715393066,-1.0219637155532837,-0.005525526590645313,0.005864465609192848,26.48,0.03,0.1,0.86,0.0,0.0,0.0,0.21
8.176136199996108,0,0,0,0,1,65,7936349,3.1783668994903564,1.5424175262451172,1.0323692560195923,1.9996925592422485,-1.0522565841674805,0.0006592165445908904,0.001315282192081213,26.46,0.03,0.09,0.88,0.0,0.0,0.0,0.13
8.207391399977496,0,0,0,0,1,65,7936381,3.1744697093963623,1.555712103843689,0.998877227306366,1.5527750253677368,-1.053747296333313,0.000538355961907655,0.0015585068613290787,26.46,0.0,0.0,0.89,0.0,0.0,0.0,0.15
8.231901399994968,0,0,0,0,1,65,7936405,3.1716301441192627,1.5564790964126587,0.976634681224823,1.214813232421875,-1.0304956436157227,0.009870810434222221,-0.004523451905697584,26.48,0.0,0.0,0.9,0.0,0.0,0.02,0.27
8.269008399976883,0,0,0,0,1,65,7936442,3.1622097492218018,1.5562233924865723,0.9456993937492371,0.8152892589569092,-0.9674100875854492,0.010654345154762268,-0.005275502800941467,26.46,0.0,0.0,0.9400000000000001,0.06,0.06,0.09,0.45
8.300261099997442,0,0,0,0,1,65,7936474,3.1488356590270996,1.5505987405776978,0.9244791865348816,0.5427486896514893,-0.8852233290672302,0.0034021674655377865,-0.006957824807614088,26.48,0.09,0.07,0.9400000000000001,0.14,0.17,0.09,0.43
8.325023399986094,0,0,0,0,1,65,7936498,3.1409904956817627,1.5357704162597656,0.912207305431366,0.2966119945049286,-0.8028991222381592,0.0011491768527776003,0.010587967932224274,26.48,0.0,0.03,0.98,0.14,0.22,0.0,0.3
8.363003199978266,0,0,0,0,1,65,7936536,3.1366422176361084,1.4981876611709595,0.8935438990592957,-0.11835534125566483,-0.6947150826454163,0.004519854672253132,0.0037570784334093332,26.46,0.0,0.03,0.9400000000000001,0.05,0.19,0.0,0.05
8.393554099980975,0,0,0,0,1,65,7936567,3.1402628421783447,1.466229796409607,0.8733466267585754,-0.37459856271743774,-0.6776031255722046,0.002124161459505558,-0.002251281635835767,26.48,0.08,0.01,0.98,0.0,0.14,0.0,0.0
8.424245300004259,0,0,0,0,1,65,7936598,3.149230718612671,1.438106894493103,0.8498255610466003,-0.5251517295837402,-0.6981496810913086,0.00014820473734289408,-0.000462590716779232,26.48,0.09,0.0,0.9500000000000001,0.0,0.07,0.0,0.0
8.455432299990207,0,0,0,0,1,65,7936629,3.1601710319519043,1.413307547569275,0.8319289088249207,-0.5997989177703857,-0.6758244633674622,-0.0014342874055728316,0.0016763192834332585,26.46,0.08,0.01,1.07,0.0,0.05,0.0,0.0
8.486360799986869,0,0,0,0,1,65,7936660,3.1690218448638916,1.3859515190124512,0.8275826573371887,-0.6689060926437378,-0.5426179766654968,-0.0003769575268961489,0.0014488834422081709,26.48,0.0,0.19,0.9500000000000001,0.0,0.01,0.0,0.0
8.517789499979699,0,0,0,0,1,65,7936691,3.1819701194763184,1.3486247062683105,0.8401101231575012,-0.8044249415397644,-0.291911244392395,-0.0010714433155953884,0.0019236980006098747,26.46,0.0,0.35000000000000003,1.08,0.0,0.0,0.0,0.0
8.548928000003798,0,0,0,0,1,65,7936722,3.199112892150879,1.30234956741333,0.8730907440185547,-0.9894617199897766,0.06561502814292908,0.0010567341232672334,0.005310724023729563,26.46,0.06,0.37,1.06,0.0,0.0,0.09,0.0
8.579538799996953,0,0,0,0,1,65,7936753,3.219280481338501,1.256585717201233,0.9280586242675781,-1.129786491394043,0.5212932825088501,0.0011010192101821303,-0.005255719181150198,26.46,0.01,0.17,1.02,0.04,0.0,0.14,0.0
8.610855499980971,0,0,0,0,1,65,7936784,3.234147548675537,1.2202816009521484,1.0073140859603882,-1.1548491716384888,1.0662354230880737,-0.005047059617936611,0.0006702627288177609,26.46,0.16,0.0,1.23,0.14,0.0,0.14,0.0
8.641244999977062,0,0,0,0,1,65,7936815,3.2367093563079834,1.1936925649642944,1.1039549112319946,-1.0754649639129639,1.6255738735198975,-0.006881180685013533,-0.0005987680051475763,26.48,0.0,0.05,1.19,0.07,0.16,0.05,0.1
8.672375800000736,0,0,0,0,1,65,7936846,3.2284882068634033,1.1752848625183105,1.210310935974121,-0.9441776275634766,2.118777275085449,0.00025703379651531577,-0.00222282693721354,26.44,0.0,0.07,1.1300000000000001,0.0,0.24,0.0,0.33
8.703509999992093,0,0,0,0,1,65,7936877,3.2147889137268066,1.1571327447891235,1.3243366479873657,-0.8389731645584106,2.5464131832122803,0.00329204136505723,0.0009166985983029008,26.46,0.0,0.08,1.04,0.0,0.25,0.0,0.41000000000000003
8.73396379998303,0,0,0,0,1,65,7936907,3.2011401653289795,1.1346343755722046,1.4237899780273438,-0.8059605360031128,2.773324728012085,0.0024501648731529713,-0.0003609168343245983,26.46,0.0,0.09,0.9400000000000001,0.0,0.22,0.06,0.4
8.76478169998154,0,0,0,0,1,65,7936938,3.1886730194091797,1.1047216653823853,1.5130163431167603,-0.8412604331970215,2.80993914604187,0.0054069748148322105,0.0026109651662409306,26.46,0.01,0.1,0.89,0.0,0.26,0.17,0.33
8.79590029999963,0,0,0,0,1,65,7936969,3.178438663482666,1.0684175491333008,1.5805115699768066,-0.928306519985199,2.6540849208831787,0.0011197058483958244,-0.003920727875083685,26.46,0.0,0.15,0.8300000000000001,0.0,0.3,0.26,0.19
8.826663599989843,0,0,0,0,1,65,7937000,3.1733322143554688,1.0277670621871948,1.6211620569229126,-1.0333911180496216,2.297093391418457,0.0020350180566310883,-0.006249251309782267,26.48,0.0,0.11,0.87,0.0,0.27,0.36,0.05
8.858560499997111,0,0,0,0,1,65,7937032,3.1721584796905518,0.9840485453605652,1.6390584707260132,-1.130044937133789,1.8118306398391724,0.0031741028651595116,-0.004977302625775337,26.48,0.08,0.01,0.89,0.0,0.19,0.37,0.0
8.88293569997768,0,0,0,0,1,65,7937056,3.1731925010681152,0.9538803100585938,1.6393141746520996,-1.1633050441741943,1.4163016080856323,0.00245817843824625,0.022909721359610558,26.46,0.0,0.0,0.91,0.0,0.1,0.31,0.02
8.91978329999256,0,0,0,0,1,65,7937093,3.1704888343811035,0.9170646667480469,1.6316442489624023,-1.1166881322860718,0.8903496265411377,0.0032815695740282536,0.003986283205449581,26.46,0.0,0.0,0.9500000000000001,0.0,0.0,0.17,0.31
8.950898099981714,0,0,0,0,1,65,7937124,3.160283088684082,0.8976343274116516,1.614770531654358,-0.9850674271583557,0.49948394298553467,0.0009385468438267708,0.0032884967513382435,26.46,0.0,0.0,0.97,0.0,0.0,0.17,0.54
8.981957399984822,0,0,0,0,1,65,7937155,3.1445982456207275,0.8833171725273132,1.5874143838882446,-0.83690345287323,0.12347117066383362,-0.002830996410921216,-0.005288268439471722,26.46,0.0,0.03,0.91,0.0,0.0,0.23,0.5700000000000001
9.013019299978623,0,0,0,0,1,65,7937186,3.129340171813965,0.8659319877624512,1.5534111261367798,-0.7515811920166016,-0.21106700599193573,0.0031341074500232935,0.0012389067560434341,26.48,0.01,0.14,0.85,0.0,0.0,0.29,0.39
9.043818699981784,0,0,0,0,1,65,7937217,3.121236562728882,0.8380646705627441,1.5219646692276,-0.7785645127296448,-0.4414498805999756,0.0015947900246828794,-0.0019906514789909124,26.48,0.14,0.14,0.88,0.04,0.0,0.25,0.09
9.075231399998302,0,0,0,0,1,65,7937249,3.1236891746520996,0.7979254722595215,1.5002332925796509,-0.9058375358581543,-0.5184001326560974,0.00377414608374238,0.00029877875931560993,26.46,0.0,0.05,0.85,0.0,0.0,0.21,0.0
9.10020529999747,0,0,0,0,1,65,7937274,3.13386607170105,0.7657119631767273,1.488728404045105,-0.9980623126029968,-0.5064187049865723,-0.0004206306766718626,-0.00291545526124537,26.48,0.09,0.0,1.03,0.0,0.0,0.21,0.0
9.137743500003126,0,0,0,0,1,65,7937311,3.147292375564575,0.7260840535163879,1.4792689085006714,-1.0338841676712036,-0.4225980043411255,-0.002571097109466791,0.0017854103352874517,26.48,0.14,0.0,1.35,0.03,0.03,0.17,0.0
9.168864099978236,0,0,0,0,1,65,7937342,3.157003879547119,0.7074206471443176,1.469298005104065,-0.9281823039054871,-0.3879651427268982,-0.00139303517062217,-0.00041464430978521705,26.44,0.0,0.03,1.06,0.0,0.0,0.15,0.0
9.199800699978368,0,0,0,0,1,65,7937373,3.1699466705322266,0.7099774479866028,1.4539581537246704,-0.6655269861221313,-0.4073435068130493,-0.01058987993746996,0.0015683978563174605,26.46,0.16,0.3,0.99,0.13,0.02,0.0,0.0
9.231223899987526,0,0,0,0,1,65,7937405,3.1894350051879883,0.7342653274536133,1.4245567321777344,-0.28077223896980286,-0.534307062625885,-0.012516940012574196,0.006451565306633711,26.48,0.0,0.21,1.03,0.16,0.22,0.0,0.0
9.25594380000257,0,0,0,0,1,65,7937429,3.206221580505371,0.7779838442802429,1.3885082006454468,0.15413399040699005,-0.7346575260162354,-0.0027394297067075968,-0.003927598707377911,26.46,0.14,0.21,0.96,0.0,0.2,0.0,0.0
9.29378629999701,0,0,0,0,1,65,7937467,3.2255897521972656,0.8794822692871094,1.3243366479873657,0.9704799652099609,-1.0585746765136719,-0.0017917127115651965,-0.004365013912320137,26.46,0.12,0.08,1.2,0.0,0.14,0.0,0.0
9.324334099976113,0,0,0,0,1,65,7937498,3.2320632934570312,0.9735663533210754,1.2831748723983765,1.5429455041885376,-1.1459741592407227,-0.007059115916490555,-0.003064299700781703,26.48,0.09,0.1,1.2,0.0,0.09,0.04,0.0
9.35552589999861,0,0,0,0,1,65,7937529,3.232396364212036,1.0725082159042358,1.2542848587036133,1.9994704723358154,-1.0912972688674927,-0.004085465334355831,0.0003064768679905683,26.48,0.11,0.09,1.17,0.12,0.02,0.01,0.05
9.386616499978118,0,0,0,0,1,65,7937560,3.2262065410614014,1.1773301362991333,1.2284631729125977,2.3717727661132812,-1.0150341987609863,-0.006452205590903759,0.0026617711409926414,26.490000000000002,0.01,0.12,1.07,0.21,0.0,0.0,0.23
9.417708900000434,0,0,0,0,1,65,7937591,3.2163608074188232,1.281640887260437,1.1972719430923462,2.6490907669067383,-1.0000916719436646,-0.006500479765236378,-0.005815081298351288,26.46,0.0,0.1,0.99,0.1,0.0,0.0,0.32
9.448748900002101,0,0,0,0,1,65,7937622,3.2055041790008545,1.3747023344039917,1.1653140783309937,2.7618236541748047,-1.0070708990097046,-0.002152185421437025,-0.0055972011759877205,26.46,0.06,0.11,0.9500000000000001,0.01,0.0,0.0,0.29
9.479941300000064,0,0,0,0,1,65,7937653,3.1955037117004395,1.4529353380203247,1.133867621421814,2.700730323791504,-1.0094767808914185,-0.0045480504631996155,-0.008393184281885624,26.48,0.08,0.08,0.9,0.0,0.0,0.0,0.25
9.510748599976068,0,0,0,0,1,65,7937684,3.186506748199463,1.517873764038086,1.1011425256729126,2.535416841506958,-1.0194320678710938,-0.006491861306130886,-0.0037716799415647984,26.48,0.0,0.08,0.88,0.0,0.0,0.0,0.26
9.541467399976682,0,0,0,0,1,65,7937715,3.1771984100341797,1.5679839849472046,1.067906379699707,2.2883105278015137,-1.0324721336364746,-0.005755383055657148,-0.0014654548140242696,26.48,0.0,0.07,0.88,0.0,0.0,0.0,0.27
9.572897099977126,0,0,0,0,1,65,7937746,3.1679532527923584,1.6012201309204102,1.0374822616577148,1.9607981443405151,-1.0230504274368286,-0.001603227574378252,-0.0017056120559573174,26.46,0.01,0.03,0.9,0.0,0.0,0.0,0.33
9.603650499979267,0,0,0,0,1,65,7937777,3.158085346221924,1.6175826787948608,1.0108932256698608,1.5726124048233032,-0.979929506778717,-0.002025604248046875,0.0048384699039161205,26.46,0.0,0.0,0.92,0.0,0.0,0.06,0.39
9.633711899979971,0,0,0,0,1,65,7937807,3.1481974124908447,1.6191166639328003,0.9873723983764648,1.1654176712036133,-0.9248170256614685,0.0011552288196980953,-0.0014852071180939674,26.46,0.0,0.0,0.92,0.07,0.08,0.09,0.51
9.66479629999958,0,0,0,0,1,65,7937838,3.1336889266967773,1.6150259971618652,0.9658966064453125,0.8038895130157471,-0.8644109964370728,0.008153358474373817,-0.0030250800773501396,26.48,0.0,0.0,0.84,0.1,0.21,0.07,0.64
9.695903899992118,0,0,0,0,1,65,7937869,3.116927146911621,1.5996862649917603,0.9495341181755066,0.4559153914451599,-0.7749519944190979,0.005001325625926256,-0.005408160388469696,26.46,0.0,0.09,0.8300000000000001,0.03,0.3,0.04,0.5
9.72737269999925,0,0,0,0,1,65,7937901,3.1055638790130615,1.5700292587280273,0.9370066523551941,0.06969352066516876,-0.6648459434509277,-0.0047170501202344894,0.0038375393487513065,26.48,0.12,0.09,0.9,0.02,0.24,0.0,0.24
9.752177999995183,0,0,0,0,1,65,7937926,3.1029016971588135,1.5424175262451172,0.9252462387084961,-0.20113995671272278,-0.612312376499176,-0.0007877839379943907,-0.001987992087379098,26.48,0.17,0.1,0.9400000000000001,0.0,0.16,0.0,0.03
9.788169799983734,0,0,0,0,1,65,7937962,3.1084108352661133,1.5071359872817993,0.9019806981086731,-0.4510607421398163,-0.6186922788619995,-0.006158525124192238,0.0017348469700664282,26.46,0.09,0.0,1.04,0.02,0.06,0.0,0.0
9.809311899996828,0,0,0,0,1,65,7937983,3.1138811111450195,1.4907735586166382,0.8874079585075378,-0.5192336440086365,-0.6378606557846069,-0.000380636309273541,0.0024004681035876274,26.48,0.0,0.01,1.07,0.03,0.07,0.0,0.0
9.835249399999157,0,0,0,0,1,65,7938009,3.1201517581939697,1.4731327295303345,0.8723239898681641,-0.5563358068466187,-0.6309103965759277,0.002864746144041419,-0.006190448999404907,26.46,0.0,0.1,1.3,0.0,0.06,0.0,0.0
9.865889999986393,0,0,0,0,1,65,7938039,3.127650022506714,1.4521684646606445,0.8649094700813293,-0.590694010257721,-0.540206253528595,0.0014281772309914231,-0.0044099618680775166,26.46,0.0,0.29,1.09,0.0,0.0,0.0,0.0
9.897991899983026,0,0,0,0,1,65,7938071,3.135714530944824,1.4245567321777344,0.8736022114753723,-0.6563143134117126,-0.32629460096359253,0.0004438460455276072,-0.0038985847495496273,26.46,0.0,0.53,1.16,0.0,0.0,0.18,0.0
9.922107599995798,0,0,0,0,1,65,7938095,3.1524243354797363,1.3974565267562866,0.8981459736824036,-0.7498652935028076,-0.052929118275642395,-0.0029299950692802668,-0.0054201604798436165,26.46,0.0,0.17,0.98,0.0,0.0,0.4,0.0
9.960938799980795,0,0,0,0,1,65,7938134,3.17564058303833,1.3358415365219116,0.9886506199836731,-1.0159536600112915,0.7061855792999268,-0.002691121306270361,-0.0017779837362468243,26.46,0.01,0.09,0.98,0.15,0.0,0.37,0.0
9.991633400000865,0,0,0,0,1,65,7938165,3.185828447341919,1.287265419960022,1.0875924825668335,-1.1839929819107056,1.398652195930481,0.004144210834056139,-0.004239591304212809,26.48,0.01,0.1,1.12,0.19,0.0,0.16,0.0
10.022549499990419,0,0,0,0,1,65,7938196,3.1851398944854736,1.2542848587036133,1.186789870262146,-1.1668540239334106,1.9119828939437866,0.0015959958545863628,0.004378599114716053,26.46,0.0,0.17,1.03,0.0,0.13,0.0,0.1
10.052907599980244,0,0,0,0,1,65,7938226,3.1788291931152344,1.2330647706985474,1.2849645614624023,-1.043920636177063,2.271775722503662,-0.00023203704040497541,0.003552059642970562,26.46,0.0,0.17,0.93,0.0,0.18,0.05,0.18
10.083561899984488,0,0,0,0,1,65,7938257,3.1713390350341797,1.2074984312057495,1.3841619491577148,-0.9704920053482056,2.528665065765381,0.0006972706178203225,-0.0005831456510350108,26.46,0.11,0.09,0.9500000000000001,0.0,0.2,0.1,0.14
10.114893199992366,0,0,0,0,1,65,7938288,3.1654319763183594,1.173750877380371,1.477734923362732,-0.991341233253479,2.6633269786834717,0.0027424332220107317,-0.006830631289631128,26.48,0.06,0.14,0.84,0.03,0.22,0.1,0.16
10.145886499987682,0,0,0,0,1,65,7938319,3.1614749431610107,1.1348899602890015,1.5577574968338013,-1.0622103214263916,2.652967929840088,0.0016260193660855293,-0.010348096489906311,26.46,0.0,0.04,0.92,0.0,0.28,0.13,0.1
10.176725299999816,0,0,0,0,1,65,7938350,3.1575379371643066,1.0911716222763062,1.6165601015090942,-1.156693935394287,2.4602389335632324,-0.008879393339157104,-0.0064845639280974865,26.46,0.19,0.09,0.9500000000000001,0.0,0.23,0.11,0.08
10.209054599981755,0,0,0,0,1,65,7938382,3.155177354812622,1.0443850755691528,1.6523529291152954,-1.2424993515014648,2.093076467514038,-0.001693004509434104,-0.0020385668613016605,26.48,0.0,0.08,0.92,0.0,0.16,0.18,0.05
10.233121700002812,0,0,0,0,1,65,7938406,3.153991937637329,1.0108932256698608,1.6628352403640747,-1.2789006233215332,1.73776376247406,-0.004357985686510801,-0.011450459249317646,26.46,0.0,0.08,0.9,0.0,0.11,0.19,0.04
10.270608099992387,0,0,0,0,1,65,7938444,3.1523313522338867,0.9674304127693176,1.6600228548049927,-1.2428817749023438,1.1418991088867188,-0.0012082577450200915,-0.02304781973361969,26.48,0.06,0.0,0.96,0.0,0.04,0.1,0.21
10.301885299995774,0,0,0,0,1,65,7938475,3.145571708679199,0.944165050983429,1.6464728116989136,-1.115694284439087,0.7090761065483093,0.007656442001461983,-0.003283852944150567,26.48,0.03,0.0,0.97,0.0,0.0,0.08,0.46
10.33327589998953,0,0,0,0,1,65,7938507,3.131972551345825,0.9275469779968262,1.620139479637146,-0.9454197883605957,0.2807314991950989,0.003837351221591234,0.00107785954605788,26.46,0.01,0.0,0.91,0.0,0.0,0.17,0.59
10.358049799979199,0,0,0,0,1,65,7938531,3.11993670463562,0.913229763507843,1.5945730209350586,-0.8560150861740112,-0.01577186957001686,0.0018195519223809242,-0.002641120692715049,26.46,0.0,0.09,0.8300000000000001,0.0,0.0,0.23,0.49
10.39549269998679,0,0,0,0,1,65,7938569,3.107665538787842,0.8789708018302917,1.550087571144104,-0.8565266132354736,-0.3935966193675995,-0.0008087623282335699,0.0016399988671764731,26.46,0.11,0.15,0.78,0.0,0.0,0.31,0.1
10.427465999993728,0,0,0,0,1,65,7938601,3.110912322998047,0.8365306854248047,1.5168514251708984,-0.9797805547714233,-0.5860574245452881,4.7959456423996016e-05,-0.002751242369413376,26.46,0.09,0.1,0.89,0.05,0.0,0.27,0.0
10.452114199986681,0,0,0,0,1,65,7938625,3.121716022491455,0.798692524433136,1.4989548921585083,-1.1099834442138672,-0.6274312138557434,-0.0031006704084575176,0.0009327223524451256,26.48,0.09,0.08,0.98,0.05,0.0,0.2,0.0
10.48950899997726,0,0,0,0,1,65,7938663,3.1467161178588867,0.7365663647651672,1.4813141822814941,-1.2886261940002441,-0.5764195322990417,-0.0008574803359806538,0.012060320936143398,26.46,0.08,0.0,1.34,0.15,0.06,0.01,0.0
10.52075289998902,0,0,0,0,1,65,7938694,3.1662416458129883,0.6982167363166809,1.4708318710327148,-1.292199730873108,-0.5041936039924622,0.009212451055645943,-0.0006197287002578378,26.46,0.08,0.0,1.1400000000000001,0.0,0.0,0.0,0.0
10.551794200000586,0,0,0,0,1,65,7938725,3.185847043991089,0.6844110488891602,1.4567705392837524,-1.0825709104537964,-0.4809095859527588,0.012471063062548637,0.00914979912340641,26.46,0.0,0.12,1.1500000000000001,0.02,0.0,0.0,0.0
10.582834400003776,0,0,0,0,1,65,7938756,3.2013328075408936,0.6971940994262695,1.432737946510315,-0.6874867081642151,-0.5458797216415405,-0.0018776264041662216,-7.490604184567928e-05,26.48,0.11,0.29,0.97,0.13,0.15,0.0,0.0
10.61407959999633,0,0,0,0,1,65,7938787,3.219529628753662,0.7401455044746399,1.389531135559082,-0.13990558683872223,-0.7591736316680908,-0.012191440910100937,-0.004014426842331886,26.48,0.01,0.37,0.88,0.0,0.17,0.0,0.0
10.644299799983855,0,0,0,0,1,65,7938818,3.2338597774505615,0.8140323758125305,1.333796501159668,0.5425453782081604,-1.049791932106018,-0.00687921280041337,-0.001525547238998115,26.46,0.01,0.22,1.08,0.0,0.15,0.0,0.0
10.675646199990297,0,0,0,0,1,65,7938849,3.2444136142730713,0.9047929644584656,1.2813854217529297,1.2003247737884521,-1.2377324104309082,-0.00227612117305398,0.00557374395430088,26.48,0.09,0.18,1.1400000000000001,0.0,0.09,0.0,0.0
10.707981299987296,0,0,0,0,1,65,7938881,3.247760534286499,1.0080809593200684,1.2440582513809204,1.771554946899414,-1.2359583377838135,-0.008828780613839626,0.006645152810961008,26.48,0.16,0.07,1.12,0.0,0.0,0.01,0.0
10.732095699990168,0,0,0,0,1,65,7938905,3.2454946041107178,1.0904045104980469,1.2241166830062866,2.136974811553955,-1.146609902381897,-0.006692554801702499,0.007339443080127239,26.48,0.06,0.03,1.07,0.14,0.0,0.0,0.21
10.76938459998928,0,0,0,0,1,65,7938943,3.2315475940704346,1.225906252861023,1.1985502243041992,2.6031885147094727,-0.9860655069351196,-0.002333736978471279,0.0018469284987077117,26.46,0.03,0.11,0.99,0.09,0.0,0.0,0.39
10.80072349999682,0,0,0,0,1,65,7938974,3.2176096439361572,1.3304725885391235,1.1775859594345093,2.826843738555908,-0.8966769576072693,8.67197522893548e-05,-0.005158159416168928,26.48,0.0,0.09,0.89,0.0,0.0,0.0,0.39
10.831500599975698,0,0,0,0,1,65,7939005,3.204946994781494,1.4179095029830933,1.1553430557250977,2.839198589324951,-0.8413127064704895,0.002473091706633568,0.0008996817050501704,26.46,0.16,0.1,0.89,0.0,0.0,0.0,0.33
10.861787000001641,0,0,0,0,1,65,7939035,3.194545030593872,1.48540461063385,1.1292654275894165,2.6902015209198,-0.8401287198066711,0.0029052861500531435,0.0002474946086294949,26.46,0.0,0.09,0.87,0.0,0.0,0.0,0.28
10.893550199980382,0,0,0,0,1,65,7939067,3.1859028339385986,1.5380712747573853,1.094239592552185,2.4020886421203613,-0.9067977070808411,0.0009618091862648726,0.0007232491043396294,26.46,0.0,0.13,0.84,0.02,0.0,0.0,0.18
10.91819509997731,0,0,0,0,1,65,7939092,3.1814723014831543,1.5649160146713257,1.0630487203598022,2.1027233600616455,-0.9825742244720459,0.0010964111424982548,3.493443728075363e-05,26.48,0.0,0.12,0.85,0.01,0.0,0.0,0.05
10.955311199999414,0,0,0,0,1,65,7939129,3.178908586502075,1.580511450767517,1.0170291662216187,1.5727083683013916,-1.069265365600586,-0.008586311712861061,0.005831810180097818,26.46,0.06,0.04,0.92,0.04,0.0,0.07,0.06
10.986005899991142,0,0,0,0,1,65,7939159,3.177011251449585,1.5800000429153442,0.9837932586669922,1.1398011445999146,-1.0874754190444946,0.0022306907922029495,0.0015758178196847439,26.46,0.03,0.0,0.97,0.07,0.07,0.04,0.22
11.017840399988927,0,0,0,0,1,65,7939191,3.1686899662017822,1.579488754272461,0.9546473622322083,0.8029457926750183,-1.0416568517684937,-0.00721562746912241,-0.0004439869662746787,26.48,0.0,0.0,0.96,0.12,0.16,0.02,0.49
11.042163399979472,0,0,0,0,1,65,7939215,3.157705783843994,1.5759094953536987,0.9393075108528137,0.5976656675338745,-0.9571471214294434,-0.011316997930407524,-0.0019135656766593456,26.46,0.11,0.0,0.9400000000000001,0.13,0.23,0.0,0.56
11.07982399998582,0,0,0,0,1,65,7939253,3.1390109062194824,1.5575017929077148,0.9209000468254089,0.25163358449935913,-0.7984189391136169,-0.004566716030240059,-3.600152558647096e-05,26.48,0.0,0.03,0.92,0.1,0.24,0.0,0.49
11.110986199986655,0,0,0,0,1,65,7939284,3.128152847290039,1.5367931127548218,0.9007024765014648,-0.0037937150336802006,-0.7448173761367798,0.0023481782991439104,-0.0025368090718984604,26.46,0.0,0.0,0.92,0.03,0.16,0.0,0.32
11.141810400004033,0,0,0,0,1,65,7939315,3.123145818710327,1.5148059129714966,0.8715569376945496,-0.19902290403842926,-0.7912837266921997,0.0002851687022484839,-0.0008173508103936911,26.46,0.12,0.03,0.89,0.0,0.11,0.0,0.12
11.173264099983498,0,0,0,0,1,65,7939347,3.1244471073150635,1.4902621507644653,0.8380648493766785,-0.355709433555603,-0.8662388324737549,0.0006832812214270234,-0.002418391639366746,26.48,0.08,0.06,0.93,0.0,0.05,0.0,0.0
11.198127399984514,0,0,0,0,1,65,7939371,3.128911018371582,1.4685307741165161,0.8171005249023438,-0.47142285108566284,-0.87973552942276,0.0012243383098393679,-0.0006650803843513131,26.46,0.11,0.13,0.96,0.02,0.05,0.0,0.0
11.234844799997518,0,0,0,0,1,65,7939408,3.142529249191284,1.4335049390792847,0.7966473698616028,-0.6227271556854248,-0.7821015119552612,0.009626532904803753,-0.004211162682622671,26.46,0.09,0.07,1.22,0.0,0.0,0.0,0.0
11.265637299977243,0,0,0,0,1,65,7939439,3.156588077545166,1.4069160223007202,0.793323814868927,-0.6923242211341858,-0.6059672832489014,0.003981858026236296,0.007235582452267408,26.46,0.0,0.27,1.07,0.0,0.0,0.0,0.0
11.297748899989529,0,0,0,0,1,65,7939471,3.175581455230713,1.3805824518203735,0.7999709248542786,-0.7245891690254211,-0.3793913424015045,-0.0012047677300870419,0.008750176057219505,26.48,0.0,0.19,1.07,0.0,0.0,0.21,0.0
11.322340699989581,0,0,0,0,1,65,7939496,3.1933999061584473,1.3534822463989258,0.8234920501708984,-0.7899998426437378,-0.10627057403326035,0.004189616534858942,0.003259807825088501,26.46,0.0,0.17,0.8200000000000001,0.0,0.0,0.34,0.0
11.36077299999306,0,0,0,0,1,65,7939534,3.2122936248779297,1.2941683530807495,0.9063272476196289,-1.029424786567688,0.6073614358901978,0.008502807468175888,0.01182580552995205,26.48,0.0,0.14,1.16,0.08,0.06,0.25,0.0
11.391647099982947,0,0,0,0,1,65,7939565,3.2187414169311523,1.2461036443710327,1.006291389465332,-1.1863412857055664,1.3221491575241089,0.009529737755656242,-0.0003502740291878581,26.48,0.0,0.12,1.27,0.03,0.02,0.03,0.0
11.422100900002988,0,0,0,0,1,65,7939595,3.215142011642456,1.2172136306762695,1.1065114736557007,-1.1482337713241577,1.881006121635437,0.004009105730801821,-0.005493031814694405,26.48,0.01,0.1,1.11,0.0,0.0,0.0,0.18
11.452623199991649,0,0,0,0,1,65,7939626,3.2056031227111816,1.2000842094421387,1.2072429656982422,-0.9865942001342773,2.25935435295105,0.0015204499941319227,-0.0045881737023591995,26.46,0.09,0.07,1.05,0.0,0.1,0.0,0.28
11.484250399982557,0,0,0,0,1,65,7939658,3.193923234939575,1.180909514427185,1.3133434057235718,-0.8632554411888123,2.5539820194244385,-0.0036475055385380983,-0.009145167656242847,26.48,0.0,0.08,1.03,0.0,0.27,0.1,0.33
11.509380000003148,0,0,0,0,1,65,7939683,3.1840901374816895,1.1594337224960327,1.3890196084976196,-0.8490666747093201,2.675354480743408,-0.0020728344097733498,-0.00706140324473381,26.46,0.0,0.12,0.9400000000000001,0.0,0.27,0.12,0.34
11.546340000000782,0,0,0,0,1,65,7939720,3.1708602905273438,1.115203857421875,1.4851490259170532,-0.9504846930503845,2.6582226753234863,-0.008365735411643982,-0.0055358149111270905,26.46,0.0,0.16,0.89,0.0,0.13,0.13,0.18
11.578399699996226,0,0,0,0,1,65,7939752,3.1647613048553467,1.0673948526382446,1.5508546829223633,-1.1011484861373901,2.4962217807769775,-0.0006669613067060709,0.0018395555671304464,26.48,0.06,0.11,0.89,0.0,0.08,0.17,0.09
11.603157899982762,0,0,0,0,1,65,7939776,3.1622226238250732,1.0293010473251343,1.5848579406738281,-1.2079037427902222,2.269148588180542,-0.003279455006122589,-0.004706256091594696,26.490000000000002,0.03,0.1,0.85,0.0,0.08,0.21,0.04
11.639918999979272,0,0,0,0,1,65,7939813,3.1595418453216553,0.9717766642570496,1.6106799840927124,-1.3219062089920044,1.775570034980774,0.0008339140331372619,-0.0020826656837016344,26.48,0.0,0.04,0.89,0.0,0.15,0.31,0.08
11.670756599982269,0,0,0,0,1,65,7939844,3.1565284729003906,0.9280583262443542,1.6124695539474487,-1.3507362604141235,1.3031175136566162,0.006414111237972975,0.0030052566435188055,26.48,0.0,0.0,0.92,0.0,0.18,0.33,0.22
11.701772100001108,0,0,0,0,1,65,7939875,3.1477105617523193,0.8917539715766907,1.6068449020385742,-1.3083598613739014,0.8899585604667664,0.004331476055085659,-0.011709088459610939,26.48,0.06,0.0,0.91,0.0,0.06,0.24,0.46
11.733062299987068,0,0,0,0,1,65,7939906,3.1334385871887207,0.8672103881835938,1.590993881225586,-1.1744147539138794,0.5090882182121277,-0.003847134066745639,-0.0077696205116808414,26.46,0.01,0.01,0.85,0.0,0.0,0.2,0.6
11.764024099975359,0,0,0,0,1,65,7939937,3.1165976524353027,0.8508478999137878,1.564404845237732,-0.9962096810340881,0.13797849416732788,-0.0034735335502773523,0.001092399936169386,26.46,0.01,0.07,0.85,0.0,0.0,0.21,0.56
11.79552319998038,0,0,0,0,1,65,7939969,3.1021106243133545,0.8339740633964539,1.530657172203064,-0.8533994555473328,-0.20076732337474823,0.0025941936764866114,0.00418240949511528,26.46,0.0,0.13,0.81,0.0,0.0,0.19,0.3
11.820308399997884,0,0,0,0,1,65,7939994,3.098541498184204,0.8142879605293274,1.5071362257003784,-0.8258613348007202,-0.3797658383846283,0.0026030107401311398,0.013434660620987415,26.48,0.0,0.11,0.9,0.02,0.0,0.18,0.01
11.857210899994243,0,0,0,0,1,65,7940031,3.105334997177124,0.7733818888664246,1.4866830110549927,-0.9078176617622375,-0.4453384578227997,-0.0026605892926454544,0.0022435253486037254,26.48,0.0,0.01,1.03,0.03,0.0,0.1,0.0
11.888802699977532,0,0,0,0,1,65,7940062,3.1193926334381104,0.7342653274536133,1.4828481674194336,-1.0062767267227173,-0.36067885160446167,0.0047134459018707275,0.016472583636641502,26.46,0.04,0.03,1.1400000000000001,0.0,0.0,0.04,0.0
11.919928099989193,0,0,0,0,1,65,7940093,3.134981393814087,0.6994951367378235,1.4818254709243774,-1.0512582063674927,-0.2649301588535309,0.007433321326971054,0.00845471303910017,26.46,0.0,0.0,1.32,0.0,0.06,0.0,0.0
11.950702399975853,0,0,0,0,1,65,7940124,3.1467196941375732,0.6805760264396667,1.4790130853652954,-0.9504120349884033,-0.20432855188846588,0.008799977600574493,-0.016812287271022797,26.46,0.09,0.06,1.09,0.0,0.0,0.0,0.0
11.981002699991222,0,0,0,0,1,65,7940154,3.1617469787597656,0.6849223971366882,1.4652074575424194,-0.6688669919967651,-0.2610754668712616,0.0002680498000700027,0.000228602671995759,26.46,0.09,0.14,0.98,0.03,0.0,0.0,0.0
12.011765999981435,0,0,0,0,1,65,7940185,3.1833653450012207,0.7061424255371094,1.4373401403427124,-0.30932316184043884,-0.4212224781513214,-0.0036826753057539463,0.002367678564041853,26.48,0.03,0.12,0.85,0.1,0.02,0.0,0.0
12.04308599999058,0,0,0,0,1,65,7940216,3.202073812484741,0.7565080523490906,1.3890196084976196,0.19863279163837433,-0.7163858413696289,-0.0031033840496093035,-0.0052065360359847546,26.48,0.0,0.35000000000000003,0.89,0.0,0.0,0.0,0.0
12.074670000001788,0,0,0,0,1,65,7940248,3.215254068374634,0.8355080485343933,1.3276605606079102,0.8324344158172607,-1.061569333076477,-0.0014500671532005072,0.001670358469709754,26.48,0.03,0.23,1.21,0.0,0.12,0.0,0.0
12.099196900002426,0,0,0,0,1,65,7940273,3.2232062816619873,0.9050485491752625,1.2849645614624023,1.2825995683670044,-1.2271453142166138,-0.001990065211430192,0.0056404974311590195,26.48,0.01,0.18,1.19,0.0,0.16,0.0,0.0
12.13632140000118,0,0,0,0,1,65,7940310,3.2282536029815674,1.014472484588623,1.2374111413955688,1.8178907632827759,-1.2569221258163452,-0.0005767274415120482,0.005407156888395548,26.48,0.03,0.08,1.11,0.04,0.0,0.0,0.0
12.166908699990017,0,0,0,0,1,65,7940340,3.2254505157470703,1.1072783470153809,1.2080100774765015,2.1592540740966797,-1.1838457584381104,-0.0014702521730214357,0.010889315977692604,26.48,0.09,0.11,1.01,0.06,0.0,0.0,0.17
12.198079199995846,0,0,0,0,1,65,7940371,3.216536045074463,1.20596444606781,1.1747738122940063,2.4359633922576904,-1.1415423154830933,0.0009094433626160026,0.0052133044227957726,26.48,0.17,0.21,0.92,0.04,0.0,0.0,0.25
12.22881529998267,0,0,0,0,1,65,7940402,3.207461357116699,1.2964693307876587,1.1407703161239624,2.5839662551879883,-1.1269041299819946,0.002263524802401662,0.001170693663880229,26.46,0.0,0.14,0.86,0.02,0.0,0.0,0.21
12.259763099980773,0,0,0,0,1,65,7940433,3.201150894165039,1.3716343641281128,1.108812689781189,2.550413131713867,-1.0993802547454834,0.001759904669597745,0.004622411448508501,26.48,0.0,0.1,0.87,0.0,0.0,0.0,0.13
12.290796799992677,0,0,0,0,1,65,7940464,3.1957578659057617,1.4306926727294922,1.0771102905273438,2.3775548934936523,-1.0750170946121216,-0.004019447136670351,-0.00093220075359568,26.46,0.0,0.1,0.87,0.0,0.0,0.0,0.11
12.322099499986507,0,0,0,0,1,65,7940495,3.1907174587249756,1.4764562845230103,1.043107032775879,2.1314830780029297,-1.0757356882095337,-0.002694000955671072,0.0042298585176467896,26.48,0.09,0.07,0.87,0.02,0.0,0.0,0.12
12.353698999999324,0,0,0,0,1,65,7940527,3.1860105991363525,1.5084142684936523,1.007825493812561,1.8148481845855713,-1.0844323635101318,-0.003675514366477728,-0.0022448417730629444,26.48,0.0,0.07,0.89,0.03,0.0,0.0,0.11
12.37844299999415,0,0,0,0,1,65,7940552,3.182166576385498,1.5227314233779907,0.9820035099983215,1.5375676155090332,-1.0739903450012207,0.005123963113874197,-0.0007691428763791919,26.490000000000002,0.0,0.03,0.92,0.03,0.0,0.0,0.15
12.41514399999869,0,0,0,0,1,65,7940588,3.17586350440979,1.527844786643982,0.9490229487419128,1.1041607856750488,-1.0251227617263794,-0.002189353574067354,-0.0015298458747565746,26.490000000000002,0.03,0.0,0.91,0.05,0.04,0.0,0.28
12.435844399995403,0,0,0,0,1,65,7940609,3.1706509590148926,1.527844786643982,0.931126594543457,0.8803460597991943,-0.9913886189460754,0.0005043419660069048,0.003185500856488943,26.46,0.0,0.0,0.89,0.09,0.12,0.0,0.4
12.461777599994093,0,0,0,0,1,65,7940635,3.1609537601470947,1.5270776748657227,0.9106734395027161,0.6616162657737732,-0.9445889592170715,0.0015899308491498232,0.003896993352100253,26.46,0.01,0.0,0.9,0.1,0.23,0.0,0.49
12.494178599998122,0,0,0,0,1,65,7940667,3.1469664573669434,1.518896460533142,0.8894532322883606,0.408505380153656,-0.8663580417633057,0.0032502692192792892,0.006012025289237499,26.46,0.0,0.03,0.9400000000000001,0.07,0.33,0.0,0.5
12.518710699980147,0,0,0,0,1,65,7940692,3.1370341777801514,1.5058578252792358,0.8741133809089661,0.20083482563495636,-0.8049401044845581,0.009993338957428932,-0.0007056331960484385,26.48,0.11,0.05,0.9500000000000001,0.03,0.33,0.0,0.39
12.555841499997769,0,0,0,0,1,65,7940729,3.1291470527648926,1.4813140630722046,0.8472687602043152,-0.07827049493789673,-0.7706208229064941,-0.002303703222423792,-0.007199018262326717,26.48,0.12,0.1,0.92,0.0,0.22,0.0,0.09
12.587716699985322,0,0,0,0,1,65,7940761,3.1321141719818115,1.461883544921875,0.8168449401855469,-0.23414874076843262,-0.8169976472854614,0.001858841278590262,-0.004691651090979576,26.48,0.0,0.0,0.96,0.0,0.11,0.0,0.0
12.61256300000241,0,0,0,0,1,65,7940786,3.140432357788086,1.4501231908798218,0.7925567626953125,-0.29243579506874084,-0.8580223321914673,0.0002719857729971409,-0.001936616376042366,26.48,0.0,0.0,1.04,0.03,0.07,0.0,0.0
12.649412300001131,0,0,0,0,1,65,7940823,3.153575897216797,1.4358059167861938,0.7664791941642761,-0.3226501941680908,-0.8172783851623535,-0.004820127040147781,0.0047843982465565205,26.48,0.06,0.02,1.22,0.0,0.02,0.0,0.0
12.680558299995027,0,0,0,0,1,65,7940854,3.160378932952881,1.4207216501235962,0.7572752833366394,-0.3593805432319641,-0.685009777545929,-0.0035408358089625835,-0.0006338991224765778,26.490000000000002,0.0,0.1,1.11,0.0,0.0,0.0,0.0
12.711891899991315,0,0,0,0,1,65,7940885,3.172731637954712,1.4025697708129883,0.7588093876838684,-0.4210118353366852,-0.48407700657844543,0.0017560897395014763,-0.013186914846301079,26.48,0.0,0.1,0.9500000000000001,0.0,0.0,0.0,0.0
12.742785299982643,0,0,0,0,1,65,7940916,3.1898386478424072,1.3798155784606934,0.769547164440155,-0.4959929585456848,-0.262786865234375,-0.00476766936480999,-0.0023198432754725218,26.46,0.0,0.34,0.9400000000000001,0.0,0.0,0.01,0.0
12.773862100002589,0,0,0,0,1,65,7940947,3.2074320316314697,1.3412103652954102,0.8094307780265808,-0.683793842792511,0.1310630440711975,-0.005501875188201666,-0.001490241033025086,26.48,0.0,0.26,1.03,0.0,0.0,0.15,0.0
12.804043099982664,0,0,0,0,1,65,7940977,3.224228858947754,1.29263436794281,0.8797381520271301,-0.9338206052780151,0.7034415602684021,-0.0019554796162992716,-0.0026827193796634674,26.46,0.0,0.16,1.2,0.08,0.0,0.14,0.0
12.835131599975284,0,0,0,0,1,65,7941008,3.2356348037719727,1.2514724731445312,0.9722881317138672,-1.0628042221069336,1.3312758207321167,-6.556586595252156e-05,0.0023886733688414097,26.48,0.01,0.06,1.18,0.03,0.0,0.05,0.0
12.866711999988183,0,0,0,0,1,65,7941040,3.234999418258667,1.2274402379989624,1.0730196237564087,-0.9899854063987732,1.855380654335022,-0.0026389136910438538,0.00047301006270572543,26.46,0.14,0.05,1.1400000000000001,0.0,0.13,0.05,0.1
12.891348999983165,0,0,0,0,1,65,7941065,3.2290635108947754,1.2136343717575073,1.150230050086975,-0.88346928358078,2.140204668045044,-0.0026167836040258408,-0.00045003555715084076,26.46,0.03,0.14,1.05,0.0,0.23,0.17,0.23
12.929131999990204,0,0,0,0,1,65,7941102,3.217697858810425,1.183721661567688,1.270391821861267,-0.8416541218757629,2.4806809425354004,0.00038076925557106733,0.002542169066146016,26.46,0.0,0.1,1.0,0.0,0.35000000000000003,0.28,0.23
12.959888899989892,0,0,0,0,1,65,7941133,3.2093398571014404,1.1476731300354004,1.362942099571228,-0.9206886887550354,2.633338212966919,0.006499047391116619,-0.0006418919656425714,26.48,0.0,0.14,0.91,0.0,0.33,0.28,0.18
12.990687499986961,0,0,0,0,1,65,7941164,3.2035529613494873,1.104210376739502,1.4373401403427124,-1.0480819940567017,2.5804331302642822,0.006487458944320679,0.004955418407917023,26.48,0.0,0.11,0.85,0.0,0.29,0.28,0.12
13.0212998999923,0,0,0,0,1,65,7941195,3.199467420578003,1.0571683645248413,1.4948643445968628,-1.1763988733291626,2.3889377117156982,0.004795664921402931,0.0008181855082511902,26.48,0.01,0.09,0.85,0.0,0.28,0.32,0.0
13.05291749999742,0,0,0,0,1,65,7941226,3.1986467838287354,1.0091036558151245,1.5327024459838867,-1.2827032804489136,2.0761237144470215,0.0024127995129674673,-0.005724035669118166,26.48,0.0,0.09,0.87,0.0,0.25,0.36,0.0
13.083773999998812,0,0,0,0,1,65,7941257,3.198611259460449,0.962317168712616,1.5516215562820435,-1.345941185951233,1.6797163486480713,-0.00030400269315578043,-0.008583633229136467,26.48,0.0,0.09,0.89,0.0,0.17,0.36,0.0
13.11410330000217,0,0,0,0,1,65,7941287,3.200063467025757,0.9226892590522766,1.5552009344100952,-1.3453450202941895,1.2626376152038574,-0.00403287447988987,0.0208058413118124,26.46,0.09,0.0,0.97,0.0,0.02,0.26,0.0
13.144873499986716,0,0,0,0,1,65,7941318,3.199462413787842,0.8904757499694824,1.5536669492721558,-1.2694549560546875,0.8941254615783691,0.0005937769892625511,0.03342141956090927,26.48,0.08,0.0,1.03,0.0,0.0,0.16,0.17
13.175565399986226,0,0,0,0,1,65,7941349,3.1930689811706543,0.8705339431762695,1.5536669492721558,-1.104116678237915,0.6405633091926575,-0.0004793470725417137,0.032664988189935684,26.48,0.0,0.0,1.03,0.0,0.0,0.15,0.44
13.206589399982477,0,0,0,0,1,65,7941380,3.1788315773010254,0.8605630993843079,1.5511102676391602,-0.8914458751678467,0.4463128447532654,0.003861040808260441,0.014135617762804031,26.46,0.04,0.0,1.0,0.0,0.0,0.22,0.65
13.237833699997282,0,0,0,0,1,65,7941411,3.159924030303955,0.8536602854728699,1.5385828018188477,-0.7002483010292053,0.2218894511461258,0.004030607175081968,0.005188832525163889,26.46,0.01,0.01,0.91,0.0,0.0,0.31,0.67
13.268286699982127,0,0,0,0,1,65,7941442,3.1428933143615723,0.8393430709838867,1.519663691520691,-0.6205689311027527,-0.006175352726131678,0.0021744139958173037,0.005668864585459232,26.48,0.04,0.08,0.87,0.0,0.0,0.32,0.42
13.298897499975283,0,0,0,0,1,65,7941472,3.1343235969543457,0.8117313385009766,1.5017671585083008,-0.6851924061775208,-0.1693132519721985,0.008672133088111877,-0.002007344737648964,26.48,0.03,0.12,0.8200000000000001,0.0,0.0,0.32,0.11
13.32999599998584,0,0,0,0,1,65,7941503,3.135693073272705,0.771336555480957,1.4900068044662476,-0.8489667773246765,-0.23706477880477905,0.0029776631854474545,0.002338640857487917,26.48,0.0,0.03,0.92,0.05,0.0,0.27,0.0
13.360875199985458,0,0,0,0,1,65,7941534,3.147784471511841,0.7260840535163879,1.485660433769226,-1.0214273929595947,-0.21173329651355743,0.00032380985794588923,-0.005729793570935726,26.48,0.0,0.0,1.1,0.0,0.0,0.26,0.0
13.391915299987886,0,0,0,0,1,65,7941565,3.1605637073516846,0.6826213002204895,1.4854048490524292,-1.1336432695388794,-0.15317869186401367,0.0036407087463885546,0.004248512908816338,26.48,0.08,0.0,1.28,0.05,0.11,0.17,0.0
13.423315099993488,0,0,0,0,1,65,7941597,3.1681737899780273,0.6524531245231628,1.4738998413085938,-1.100313663482666,-0.19201581180095673,0.006734576541930437,0.007398783694952726,26.46,0.0,0.04,1.1,0.0,0.1,0.02,0.0
13.448425399983535,0,0,0,0,1,65,7941622,3.1778669357299805,0.645805835723877,1.4554920196533203,-0.930536150932312,-0.3078423738479614,0.002336069941520691,0.0038072755560278893,26.48,0.0,0.11,0.96,0.0,0.0,0.0,0.0
13.484901599993464,0,0,0,0,1,65,7941658,3.1981568336486816,0.6544983983039856,1.4232784509658813,-0.5683847069740295,-0.48773932456970215,-0.001972068566828966,-0.00021174154244363308,26.48,0.0,0.28,0.93,0.16,0.09,0.0,0.0
13.50551849999465,0,0,0,0,1,65,7941679,3.211338996887207,0.673673152923584,1.3966894149780273,-0.2971218228340149,-0.6271317005157471,-0.0019737526308745146,-0.0016723360167816281,26.48,0.03,0.32,0.91,0.14,0.15,0.0,0.0
13.53216319999774,0,0,0,0,1,65,7941705,3.2271976470947266,0.7209708094596863,1.353226661682129,0.17577752470970154,-0.8650065064430237,-0.005638730246573687,0.0024735063780099154,26.46,0.08,0.28,1.0,0.0,0.19,0.0,0.0
13.562190099997679,0,0,0,0,1,65,7941735,3.242849826812744,0.7997152209281921,1.2992817163467407,0.8232764005661011,-1.123958706855774,-0.0005923013668507338,0.00363553618080914,26.44,0.11,0.03,1.27,0.0,0.17,0.0,0.0
13.593247999990126,0,0,0,0,1,65,7941767,3.2506814002990723,0.8994238972663879,1.2558189630508423,1.4713181257247925,-1.2102386951446533,0.0030517412815243006,-0.001853825757279992,26.46,0.0,0.06,1.22,0.0,0.04,0.0,0.0
13.61848619999364,0,0,0,0,1,65,7941792,3.2495217323303223,0.983025848865509,1.237155556678772,1.901153326034546,-1.1186342239379883,-0.002433265093713999,-0.007929219864308834,26.44,0.0,0.03,1.1300000000000001,0.04,0.0,0.0,0.16
13.654843099997379,0,0,0,0,1,65,7941828,3.2383806705474854,1.1088123321533203,1.2187477350234985,2.4007012844085693,-0.9219475388526917,-0.0053408280946314335,-0.0002421882818453014,26.46,0.0,0.11,0.98,0.17,0.0,0.0,0.43
13.675380599976052,0,0,0,0,1,65,7941849,3.227846145629883,1.1821876764297485,1.206475853919983,2.616821765899658,-0.8452690243721008,-0.002945382846519351,0.004508775658905506,26.48,0.0,0.08,1.0,0.05,0.0,0.0,0.49
13.703327499999432,0,0,0,0,1,65,7941877,3.2124545574188232,1.2747379541397095,1.1842330694198608,2.799119710922241,-0.8208984136581421,-0.002803988056257367,0.002253735437989235,26.44,0.0,0.14,0.96,0.0,0.0,0.0,0.45
13.733960399986245,0,0,0,0,1,65,7941907,3.1988866329193115,1.3603852987289429,1.154831886291504,2.827425241470337,-0.8569207191467285,-0.0008561020949855447,0.010793257504701614,26.44,0.0,0.13,0.89,0.0,0.0,0.0,0.3
13.764991599979112,0,0,0,0,1,65,7941938,3.18941593170166,1.430948257446289,1.1203171014785767,2.6845884323120117,-0.924792468547821,-0.0015148832462728024,0.01061999425292015,26.46,0.2,0.09,0.8200000000000001,0.0,0.0,0.0,0.2
13.795152699982282,0,0,0,0,1,65,7941968,3.1829161643981934,1.4836149215698242,1.0819679498672485,2.440717935562134,-1.0160901546478271,-0.0055495197884738445,0.0038236770778894424,26.48,0.12,0.14,0.81,0.0,0.0,0.0,0.15
13.826430499990238,0,0,0,0,1,65,7942000,3.1776065826416016,1.5224758386611938,1.0374822616577148,2.1010119915008545,-1.1214414834976196,0.0017133670626208186,0.0036793011240661144,26.46,0.01,0.11,0.85,0.0,0.0,0.0,0.1
13.851400399988052,0,0,0,0,1,65,7942025,3.1748178005218506,1.5398610830307007,1.0045017004013062,1.785873293876648,-1.1735926866531372,0.0021500391885638237,-0.005262771621346474,26.46,0.0,0.09,0.88,0.0,0.0,0.0,0.08
13.88791229997878,0,0,0,0,1,65,7942061,3.171475887298584,1.545485496520996,0.9646183848381042,1.2807928323745728,-1.1609399318695068,-0.001989547163248062,-0.0004656313103623688,26.48,0.0,0.0,0.96,0.02,0.01,0.0,0.14
13.908464099979028,0,0,0,0,1,65,7942082,3.168757200241089,1.54446280002594,0.9464661478996277,1.0122356414794922,-1.1065058708190918,-0.003901015967130661,0.00146570208016783,26.46,0.0,0.0,0.9500000000000001,0.05,0.07,0.0,0.33
13.934723599988502,0,0,0,0,1,65,7942108,3.160689353942871,1.5426732301712036,0.9303595423698425,0.7516169548034668,-0.993939995765686,-0.002862616442143917,0.0005766765680164099,26.48,0.12,0.0,0.9400000000000001,0.1,0.2,0.0,0.48
13.964975199982291,0,0,0,0,1,65,7942138,3.147501230239868,1.5321909189224243,0.9188547134399414,0.4654078483581543,-0.8342891335487366,-0.0017504214774817228,0.0012681507505476475,26.46,0.0,0.0,0.96,0.09,0.3,0.0,0.56
13.99611539999023,0,0,0,0,1,65,7942169,3.1333322525024414,1.5122493505477905,0.907861053943634,0.16395698487758636,-0.693843424320221,0.0033162222243845463,-0.004430838394910097,26.48,0.11,0.06,0.87,0.04,0.27,0.0,0.45
14.026734999992186,0,0,0,0,1,65,7942200,3.124016761779785,1.4874500036239624,0.8914985656738281,-0.09934400767087936,-0.637869119644165,0.003906229045242071,-0.008077590726315975,26.46,0.0,0.14,0.84,0.03,0.19,0.0,0.17
14.05763090000255,0,0,0,0,1,65,7942231,3.123342990875244,1.4626506567001343,0.8672106862068176,-0.29504671692848206,-0.6714187860488892,0.005383015144616365,0.0013176866341382265,26.46,0.0,0.08,0.93,0.0,0.09,0.0,0.0
14.089772499981336,0,0,0,0,1,65,7942263,3.130549907684326,1.4404077529907227,0.8360195159912109,-0.41248995065689087,-0.7556211352348328,0.010525126941502094,0.004323191475123167,26.46,0.0,0.0,1.01,0.0,0.03,0.0,0.0
14.114364699984435,0,0,0,0,1,65,7942288,3.1395161151885986,1.4263464212417603,0.8101975321769714,-0.4502201974391937,-0.8201812505722046,0.005880977027118206,0.006396966986358166,26.48,0.0,0.0,1.08,0.0,0.0,0.0,0.0
14.15185389999533,0,0,0,0,1,65,7942325,3.1520564556121826,1.408961296081543,0.7807963490486145,-0.45528149604797363,-0.8226232528686523,0.003829370252788067,-0.0010085683315992355,26.46,0.06,0.11,1.2,0.0,0.0,0.0,0.0
14.184055199992144,0,0,0,0,1,65,7942357,3.1665356159210205,1.3936214447021484,0.7731263041496277,-0.4566762447357178,-0.6778013110160828,-0.0006111186230555177,-0.017626868560910225,26.48,0.09,0.1,1.07,0.0,0.0,0.0,0.0
14.208396200003335,0,0,0,0,1,65,7942382,3.175960063934326,1.3762363195419312,0.7813075184822083,-0.4953479766845703,-0.4581744372844696,-0.0031398488208651543,-0.011798553168773651,26.46,0.0,0.33,0.96,0.0,0.0,0.05,0.0
14.245222300000023,0,0,0,0,1,65,7942419,3.1945831775665283,1.3258706331253052,0.83116215467453,-0.7497752904891968,0.08872845023870468,0.0019041073974221945,-0.002581932581961155,26.46,0.11,0.33,1.0,0.0,0.0,0.25,0.0
14.27663089998532,0,0,0,0,1,65,7942450,3.2098731994628906,1.2688575983047485,0.9099063873291016,-1.052595615386963,0.7453421950340271,0.0016449564136564732,-0.0011742280330508947,26.46,0.0,0.14,1.19,0.06,0.0,0.18,0.0
14.306562799989479,0,0,0,0,1,65,7942480,3.219869375228882,1.2264175415039062,1.0042461156845093,-1.1764047145843506,1.3869467973709106,0.0030774816405028105,-0.006496755871921778,26.48,0.0,0.03,1.21,0.14,0.0,0.01,0.0
14.337756599998102,0,0,0,0,1,65,7942511,3.217647075653076,1.2039190530776978,1.1008869409561157,-1.067908525466919,1.880635142326355,0.0025521668139845133,-0.011807465925812721,26.46,0.11,0.07,1.03,0.0,0.06,0.0,0.18
14.368757299991557,0,0,0,0,1,65,7942542,3.207216501235962,1.1893463134765625,1.1970163583755493,-0.8955699801445007,2.2113535404205322,0.00432793190702796,-0.008252914994955063,26.48,0.11,0.16,1.0,0.0,0.21,0.05,0.32
14.399991799989948,0,0,0,0,1,65,7942573,3.194544553756714,1.166847825050354,1.2990261316299438,-0.8309052586555481,2.5037553310394287,-0.006423561833798885,-0.006197166629135609,26.46,0.0,0.14,1.0,0.0,0.32,0.08,0.32
14.431394099985482,0,0,0,0,1,65,7942605,3.1833391189575195,1.1331003904342651,1.3961782455444336,-0.8857699036598206,2.670319080352783,-0.0015413729706779122,-0.006043653469532728,26.46,0.09,0.1,0.91,0.0,0.29,0.03,0.24
14.456569100002525,0,0,0,0,1,65,7942630,3.1766841411590576,1.1021651029586792,1.4613723754882812,-0.9619994163513184,2.6576831340789795,0.0011023139813914895,-0.004834176041185856,26.48,0.0,0.11,0.8200000000000001,0.0,0.25,0.03,0.19
14.492011399997864,0,0,0,0,1,65,7942665,3.169769048690796,1.0556343793869019,1.5355148315429688,-1.0740092992782593,2.5025100708007812,0.0014120555715635419,-0.0020711910910904408,26.46,0.08,0.05,0.9,0.0,0.25,0.07,0.16
14.513509999989765,0,0,0,0,1,65,7942687,3.165980577468872,1.0236763954162598,1.5697736740112305,-1.1479032039642334,2.31937575340271,0.0030289634596556425,-0.0006382807623594999,26.48,0.0,0.03,0.96,0.0,0.17,0.12,0.18
14.538799399975687,0,0,0,0,1,65,7942712,3.1612391471862793,0.9840485453605652,1.5971297025680542,-1.2413668632507324,2.04488205909729,-0.0020246244966983795,8.663209155201912e-05,26.46,0.0,0.08,0.92,0.0,0.06,0.17,0.2
14.569154500000877,0,0,0,0,1,65,7942742,3.1551685333251953,0.9316375851631165,1.6150261163711548,-1.3727357387542725,1.6636606454849243,0.0003512000839691609,0.0055112820118665695,26.46,0.11,0.1,0.8300000000000001,0.0,0.0,0.16,0.17
14.599768999993103,0,0,0,0,1,65,7942773,3.1508991718292236,0.8779481053352356,1.6163043975830078,-1.4759172201156616,1.2204917669296265,0.000568007817491889,0.0009077878203243017,26.48,0.0,0.06,0.89,0.0,0.0,0.05,0.1
14.630709499993827,0,0,0,0,1,65,7942804,3.146375894546509,0.8380646705627441,1.6047996282577515,-1.4426566362380981,0.7842176556587219,0.0026228015776723623,0.0033828257583081722,26.48,0.12,0.05,0.99,0.0,0.0,0.0,0.21
14.66133259999333,0,0,0,0,1,65,7942835,3.139289617538452,0.8153106570243835,1.579233169555664,-1.2568325996398926,0.348770409822464,0.002977228257805109,-0.0008241089526563883,26.48,0.0,0.04,0.93,0.0,0.0,0.04,0.34
14.691760799993062,0,0,0,0,1,65,7942865,3.1306209564208984,0.8030387759208679,1.5465083122253418,-1.0289738178253174,-0.038497213274240494,0.013375029899179935,0.0002493406645953655,26.46,0.11,0.0,0.96,0.0,0.0,0.12,0.4
14.723207100003492,0,0,0,0,1,65,7942897,3.1207077503204346,0.7884659767150879,1.5130163431167603,-0.8528524041175842,-0.33179330825805664,0.0005507640307769179,-0.0031377356499433517,26.44,0.0,0.07,0.92,0.0,0.0,0.22,0.33
14.748508699995,0,0,0,0,1,65,7942922,3.1151015758514404,0.7715921401977539,1.4933303594589233,-0.800942063331604,-0.4455816447734833,0.0009380491101182997,0.004430487751960754,26.48,0.11,0.07,0.92,0.0,0.0,0.25,0.14
14.78433860000223,0,0,0,0,1,65,7942958,3.1146247386932373,0.7404012680053711,1.477223515510559,-0.8180714249610901,-0.45166924595832825,-0.0024859202094376087,0.004602775443345308,26.48,0.04,0.09,0.92,0.0,0.0,0.31,0.0
14.805937700002687,0,0,0,0,1,65,7942979,3.1194729804992676,0.7189254760742188,1.4738998413085938,-0.8546119332313538,-0.3998066782951355,-0.002196707995608449,0.011164715513586998,26.48,0.11,0.0,1.0,0.0,0.0,0.33,0.0
14.845485300000291,0,0,0,0,1,65,7943019,3.13291072845459,0.6769968867301941,1.4726215600967407,-0.9239267706871033,-0.27045631408691406,-0.002570039825513959,-0.010969401337206364,26.48,0.0,0.0,1.23,0.04,0.14,0.23,0.0
14.876714099984383,0,0,0,0,1,65,7943050,3.1422102451324463,0.6544983983039856,1.4713433980941772,-0.8841888904571533,-0.19956070184707642,-0.004309921059757471,-0.02515425533056259,26.46,0.01,0.03,1.07,0.0,0.15,0.14,0.0
14.90743549997569,0,0,0,0,1,65,7943081,3.153693914413452,0.6486180424690247,1.4626506567001343,-0.7082759141921997,-0.21122410893440247,-0.0002843803958967328,-0.005626806057989597,26.46,0.11,0.16,1.1500000000000001,0.01,0.06,0.01,0.0
14.938976799981901,0,0,0,0,1,65,7943112,3.1728038787841797,0.6504077911376953,1.4480777978897095,-0.4952191114425659,-0.27514880895614624,0.008612999692559242,-0.0028770980425179005,26.46,0.0,0.12,1.0,0.04,0.15,0.0,0.0
14.970133499999065,0,0,0,0,1,65,7943143,3.1934762001037598,0.6769968867301941,1.4166313409805298,-0.15704447031021118,-0.45690396428108215,0.004958475474268198,-0.0001121454406529665,26.48,0.11,0.28,0.86,0.01,0.0,0.0,0.0
