Time,PowerKeyState,FuncKeyState ,UpKeyState ,DownKeyState ,DeviceError ,Battery ,DeviceMs ,BackIncl ,HipAngle_L ,HipAngle_R ,HipSpeed_L ,HipSpeed_R ,HipTor_L ,HipTor_R ,Voltage ,Current ,AccX ,AccY ,AccZ ,GyroX ,GyroY ,GyroZ
0.0005500999977812171,0,0,0,0,1,64,8622361,3.212280511856079,0.8636310696601868,1.5493206977844238,-1.2453875541687012,0.8322870135307312,0.0039031589403748512,0.0007347703794948757,26.42,0.0,0.0,0.9500000000000001,0.0,0.0,0.16,0.47000000000000003
0.031532099994365126,0,0,0,0,1,64,8622392,3.198240280151367,0.8372977375984192,1.5380715131759644,-1.1352262496948242,0.507575273513794,-0.0041214898228645325,-0.0017978729447349906,26.42,0.01,0.0,0.92,0.0,0.0,0.18,0.6
0.062101999996230006,0,0,0,0,1,64,8622423,3.1816599369049072,0.8094304203987122,1.5204306840896606,-1.0599908828735352,0.21311882138252258,0.001008276711218059,-0.003769360948354006,26.44,0.0,0.03,0.81,0.0,0.0,0.16,0.51
0.09320159998605959,0,0,0,0,1,64,8622454,3.1696221828460693,0.7759385108947754,1.5007444620132446,-1.0549651384353638,-0.024619126692414284,-0.0012015816755592823,0.005286880303174257,26.42,0.01,0.05,0.76,0.0,0.0,0.16,0.24
0.1242838999896776,0,0,0,0,1,64,8622485,3.1665737628936768,0.7373332977294922,1.484382152557373,-1.1025772094726562,-0.1672145426273346,-0.0014676558785140514,0.0021572590339928865,26.44,0.0,0.08,0.84,0.0,0.0,0.23,0.0
0.15623860000050627,0,0,0,0,1,64,8622517,3.1744236946105957,0.6977055668830872,1.473388671875,-1.1487842798233032,-0.22161461412906647,0.0028320373967289925,0.008536304347217083,26.42,0.03,0.0,0.97,0.0,0.0,0.25,0.0
0.18094429999473505,0,0,0,0,1,64,8622541,3.184436321258545,0.6708609461784363,1.4695535898208618,-1.1465860605239868,-0.21002846956253052,0.0023860828951001167,-0.012521833181381226,26.44,0.11,0.0,1.16,0.0,0.01,0.31,0.0
0.2186195999966003,0,0,0,0,1,64,8622579,3.1972455978393555,0.6366021037101746,1.4695535898208618,-1.0748707056045532,-0.13989757001399994,0.0025757132098078728,-0.016915593296289444,26.44,0.14,0.0,1.32,0.02,0.16,0.19,0.0
0.24941129999933764,0,0,0,0,1,64,8622610,3.206336736679077,0.6227960586547852,1.4695535898208618,-0.9110509157180786,-0.09805097430944443,0.004142841324210167,-0.012279963120818138,26.42,0.0,0.0,1.08,0.0,0.0,0.21,0.0
0.28163369998219423,0,0,0,0,1,64,8622642,3.219341278076172,0.6238186955451965,1.468786597251892,-0.6486942172050476,-0.07145757973194122,0.007715778425335884,-0.012093721888959408,26.42,0.01,0.06,1.07,0.1,0.01,0.01,0.0
0.30599540000548586,0,0,0,0,1,64,8622666,3.2296292781829834,0.6335341334342957,1.4585599899291992,-0.4299972653388977,-0.12732118368148804,0.004401130601763725,0.0015626661479473114,26.42,0.0,0.14,0.97,0.09,0.12,0.0,0.0
0.3437516999838408,0,0,0,0,1,64,8622704,3.2499053478240967,0.6951489448547363,1.4035924673080444,0.20597675442695618,-0.5283032655715942,0.011464748531579971,0.00018947012722492218,26.44,0.08,0.28,0.89,0.0,0.04,0.0,0.0
0.37415459999465384,0,0,0,0,1,64,8622735,3.26275634765625,0.7792620658874512,1.337887167930603,0.8896502256393433,-0.9695807695388794,-0.0016377829015254974,0.0002530717756599188,26.400000000000002,0.0,0.21,1.07,0.0,0.11,0.0,0.0
0.40535769998678006,0,0,0,0,1,64,8622766,3.272233486175537,0.8710452914237976,1.282152533531189,1.4679166078567505,-1.227537989616394,-0.004871755838394165,0.008018231019377708,26.42,0.09,0.07,1.17,0.0,0.21,0.0,0.0
0.43648509998456575,0,0,0,0,1,64,8622797,3.2773165702819824,0.9630842208862305,1.2458480596542358,1.8858585357666016,-1.2278586626052856,-0.00522774551063776,0.005125580355525017,26.42,0.0,0.0,1.17,0.0,0.09,0.0,0.0
0.4679143999819644,0,0,0,0,1,64,8622828,3.2752161026000977,1.0620259046554565,1.2192589044570923,2.2377610206604004,-1.1232389211654663,-0.0029293277766555548,0.0008795247413218021,26.42,0.11,0.07,1.1400000000000001,0.0,0.0,0.0,0.15
0.49820770000224,0,0,0,0,1,64,8622859,3.2657673358917236,1.1655696630477905,1.1875568628311157,2.5372440814971924,-1.0764405727386475,0.0015693081077188253,0.006650462746620178,26.42,0.08,0.06,1.07,0.0,0.0,0.0,0.29
0.5301092999870889,0,0,0,0,1,64,8622891,3.254847288131714,1.2642556428909302,1.1463950872421265,2.7041358947753906,-1.126436471939087,0.0008517005480825901,0.00728179607540369,26.44,0.0,0.13,0.9,0.0,0.0,0.0,0.2
0.555110599991167,0,0,0,0,1,64,8622916,3.2496485710144043,1.3271489143371582,1.1116247177124023,2.6742916107177734,-1.1863008737564087,-0.009569293819367886,0.0019583487883210182,26.42,0.0,0.08,0.84,0.01,0.0,0.0,0.05
0.5923848999955226,0,0,0,0,1,64,8622953,3.2473928928375244,1.3948997259140015,1.0576797723770142,2.4118194580078125,-1.2707421779632568,-0.004157488700002432,0.0018657014006748796,26.42,0.08,0.08,0.85,0.04,0.0,0.0,0.0
0.6241889999946579,0,0,0,0,1,64,8622985,3.247528076171875,1.433760643005371,1.007569670677185,2.075796127319336,-1.3502827882766724,-0.004296096041798592,0.0055740997195243835,26.42,0.0,0.0,0.89,0.02,0.0,0.0,0.0
0.649088899983326,0,0,0,0,1,64,8623010,3.2475948333740234,1.4531911611557007,0.969476044178009,1.7816181182861328,-1.391887903213501,-0.0030733440071344376,-0.00108100357465446,26.42,0.0,0.0,0.92,0.0,0.0,0.0,0.03
0.6867669000057504,0,0,0,0,1,64,8623047,3.2443349361419678,1.466229796409607,0.9219226837158203,1.327467679977417,-1.368377923965454,-0.0038892144802957773,0.001147471833974123,26.42,0.12,0.0,0.92,0.0,0.0,0.0,0.18
0.7186010000004899,0,0,0,0,1,64,8623079,3.2372076511383057,1.4664855003356934,0.8909873962402344,0.9479618072509766,-1.2591954469680786,-0.00030408005113713443,0.0026923699770122766,26.42,0.0,0.0,0.93,0.03,0.05,0.0,0.46
0.743130699993344,0,0,0,0,1,64,8623104,3.2256968021392822,1.466229796409607,0.8723239898681641,0.7242518067359924,-1.14370858669281,0.0018707967828959227,0.0011585240717977285,26.42,0.0,0.0,0.89,0.09,0.17,0.0,0.63
0.7802567000035197,0,0,0,0,1,64,8623141,3.2041451930999756,1.4585599899291992,0.8503367304801941,0.4341512620449066,-0.9629175662994385,-0.0041554998606443405,0.004410032648593187,26.42,0.17,0.0,0.89,0.02,0.25,0.0,0.59
0.8102658999850973,0,0,0,0,1,64,8623171,3.1903069019317627,1.4450098276138306,0.8314177393913269,0.19872289896011353,-0.8658789992332458,-0.005946045741438866,0.009823344647884369,26.400000000000002,0.0,0.04,0.85,0.0,0.25,0.0,0.37
0.8422962999902666,0,0,0,0,1,64,8623203,3.1828689575195312,1.4317153692245483,0.8053401112556458,0.016716156154870987,-0.8433352708816528,0.005432109348475933,0.005989876575767994,26.42,0.0,0.04,0.96,0.0,0.16,0.0,0.13
0.867089399980614,0,0,0,0,1,64,8623228,3.1825449466705322,1.4250680208206177,0.7802848815917969,-0.05101980268955231,-0.8746135830879211,0.005184179171919823,-0.0004130530869588256,26.42,0.0,0.0,1.03,0.0,0.09,0.0,0.01
0.9053869000053965,0,0,0,0,1,64,8623266,3.1881630420684814,1.4214887619018555,0.7386118769645691,-0.06709408015012741,-0.9485882520675659,-0.0068451836705207825,0.0035083938855677843,26.42,0.01,0.0,1.05,0.06,0.04,0.0,0.0
0.936540700000478,0,0,0,0,1,64,8623297,3.1949589252471924,1.4209774732589722,0.7107445597648621,-0.04992980882525444,-0.9457638263702393,-0.009697512723505497,-0.0045616840943694115,26.44,0.12,0.0,1.09,0.08,0.04,0.0,0.0
0.9679351999948267,0,0,0,0,1,64,8623328,3.198269844055176,1.412796139717102,0.6971943974494934,-0.09622407704591751,-0.8199498057365417,-0.006694657728075981,0.011030097492039204,26.42,0.03,0.0,1.27,0.0,0.0,0.0,0.03
0.999078599998029,0,0,0,0,1,64,8623360,3.2000112533569336,1.3897863626480103,0.6974499821662903,-0.26256826519966125,-0.5851761698722839,0.005747493822127581,0.01021489966660738,26.42,0.0,0.07,0.88,0.0,0.0,0.0,0.0
1.0241338000050746,0,0,0,0,1,64,8623385,3.2095847129821777,1.3660097122192383,0.7007735371589661,-0.41672053933143616,-0.4213128983974457,-0.00398913212120533,0.026326801627874374,26.44,0.06,0.07,0.87,0.0,0.0,0.0,0.0
1.0599206000042614,0,0,0,0,1,64,8623420,3.229501485824585,1.329194188117981,0.7217381596565247,-0.6097089052200317,-0.1277359277009964,-0.0024528843350708485,0.006670813541859388,26.400000000000002,0.06,0.27,1.01,0.0,0.0,0.07,0.0
1.0811510999919847,0,0,0,0,1,64,8623442,3.2428622245788574,1.3000484704971313,0.7531846165657043,-0.7478565573692322,0.1664751023054123,0.00010254728840664029,0.004532318562269211,26.44,0.03,0.21,0.9400000000000001,0.0,0.0,0.16,0.0
1.1062864999985322,0,0,0,0,1,64,8623467,3.2593464851379395,1.26348876953125,0.8071295619010925,-0.9114474654197693,0.6019273400306702,-0.0016824532067403197,0.0031238964293152094,26.42,0.0,0.1,1.05,0.0,0.0,0.16,0.0
1.137430700007826,0,0,0,0,1,64,8623498,3.27266788482666,1.2213042974472046,0.8981459736824036,-1.046866536140442,1.2279174327850342,0.003920669201761484,-0.0035024655517190695,26.42,0.0,0.07,1.25,0.08,0.0,0.13,0.0
1.1676900000020396,0,0,0,0,1,64,8623528,3.2751755714416504,1.1931813955307007,1.002200722694397,-1.031368613243103,1.8308162689208984,-0.0013503269292414188,0.0034686888102442026,26.42,0.0,0.09,1.21,0.0,0.01,0.12,0.0
1.199396699987119,0,0,0,0,1,64,8623560,3.270448684692383,1.17681884765625,1.1159709692001343,-0.8897899389266968,2.329331159591675,-0.007807331159710884,-0.0015269091818481684,26.42,0.0,0.08,1.12,0.0,0.13,0.23,0.16
1.2242329999862704,0,0,0,0,1,64,8623585,3.2631118297576904,1.1650582551956177,1.203407883644104,-0.7820877432823181,2.590019702911377,-0.0009511506068520248,-0.003370658727362752,26.42,0.09,0.07,1.07,0.0,0.25,0.33,0.22
1.2612031000026036,0,0,0,0,1,64,8623622,3.2513909339904785,1.1338672637939453,1.3284273147583008,-0.7816380858421326,2.8499767780303955,-0.00451003247871995,-0.001243031700141728,26.42,0.09,0.1,0.96,0.0,0.28,0.37,0.21
1.2925969999923836,0,0,0,0,1,64,8623653,3.243695020675659,1.0937281847000122,1.4140745401382446,-0.9135894775390625,2.8434321880340576,-0.0005456616054289043,0.0003902281168848276,26.42,0.01,0.1,0.89,0.0,0.27,0.37,0.12
1.3226772999914829,0,0,0,0,1,64,8623683,3.2382423877716064,1.0466861724853516,1.4795246124267578,-1.0837352275848389,2.671640396118164,-0.0016838583396747708,0.0035541770048439503,26.44,0.12,0.08,0.85,0.0,0.24,0.4,0.05
1.3537828999978956,0,0,0,0,1,64,8623714,3.235989809036255,0.9963204264640808,1.5232429504394531,-1.2383431196212769,2.3373563289642334,0.005305851809680462,0.006955964025110006,26.42,0.09,0.0,0.88,0.0,0.19,0.41000000000000003,0.0
1.3848812000069302,0,0,0,0,1,64,8623745,3.2355875968933105,0.9472330212593079,1.5439516305923462,-1.3351887464523315,1.8863141536712646,0.001238769618794322,-0.0003296550130471587,26.44,0.0,0.0,0.9,0.0,0.16,0.36,0.01
1.4156062999973074,0,0,0,0,1,64,8623776,3.2346506118774414,0.9037702679634094,1.5457414388656616,-1.3583840131759644,1.3847179412841797,0.0035165578592568636,0.024130821228027344,26.42,0.03,0.0,0.9500000000000001,0.0,0.1,0.28,0.13
1.4467543000064325,0,0,0,0,1,64,8623807,3.2294557094573975,0.8689999580383301,1.5411394834518433,-1.3007521629333496,0.9549351334571838,0.00301672937348485,0.007876633666455746,26.42,0.08,0.0,0.91,0.0,0.01,0.16,0.39
1.4782770999881905,0,0,0,0,1,64,8623839,3.2172653675079346,0.8459903597831726,1.527589201927185,-1.1438446044921875,0.5716752409934998,0.0018391511403024197,0.006847829557955265,26.42,0.03,0.0,0.9400000000000001,0.0,0.0,0.1,0.53
1.5033178000012413,0,0,0,0,1,64,8623864,3.205138683319092,0.8332071304321289,1.5096927881240845,-0.997701108455658,0.28031671047210693,-0.0015496505657210946,9.147950913757086e-05,26.42,0.0,0.0,0.89,0.0,0.0,0.08,0.54
1.5405219999956898,0,0,0,0,1,64,8623901,3.1899526119232178,0.8068737983703613,1.480291485786438,-0.888331413269043,-0.06879004836082458,0.006233648397028446,0.004198388196527958,26.42,0.0,0.04,0.86,0.01,0.0,0.02,0.28
1.571215600008145,0,0,0,0,1,64,8623932,3.1855223178863525,0.7703139185905457,1.4669970273971558,-0.9544399976730347,-0.18328511714935303,0.0042351968586444855,0.01681099273264408,26.42,0.0,0.05,0.92,0.02,0.0,0.03,0.0
1.6016842999961227,0,0,0,0,1,64,8623962,3.1881966590881348,0.7240387797355652,1.4654630422592163,-1.1073094606399536,-0.15006674826145172,-0.0027337598148733377,0.007880028337240219,26.44,0.0,0.03,0.97,0.0,0.0,0.14,0.0
1.63247529999353,0,0,0,0,1,64,8623993,3.1981470584869385,0.6759741902351379,1.4644403457641602,-1.2375093698501587,-0.11281083524227142,0.005659794434905052,0.002878510160371661,26.44,0.06,0.0,1.1500000000000001,0.0,0.0,0.27,0.0
1.6638715000008233,0,0,0,0,1,64,8624024,3.205950975418091,0.6404368281364441,1.4641847610473633,-1.2306053638458252,-0.08024097979068756,0.0021514648105949163,-0.001299321767874062,26.42,0.0,0.0,1.26,0.0,0.04,0.31,0.0
1.695184199983487,0,0,0,0,1,64,8624056,3.2066168785095215,0.62126225233078,1.4557479619979858,-1.0669269561767578,-0.11568377912044525,-0.00037554639857262373,-0.0022450562100857496,26.400000000000002,0.0,0.0,1.1500000000000001,0.0,0.08,0.24,0.06
1.7202155999839306,0,0,0,0,1,64,8624081,3.207470655441284,0.6204951405525208,1.4378513097763062,-0.838039755821228,-0.2424629181623459,-0.013146367855370045,0.0016457987949252129,26.42,0.0,0.08,0.89,0.0,0.0,0.14,0.0
1.7586807000043336,0,0,0,0,1,64,8624119,3.221146583557129,0.6245858073234558,1.4066604375839233,-0.521382212638855,-0.433569073677063,8.088588947430253e-05,0.003539052791893482,26.400000000000002,0.0,0.16,0.93,0.17,0.09,0.0,0.0
1.7895983000053093,0,0,0,0,1,64,8624150,3.243070125579834,0.6470842361450195,1.373679757118225,-0.2036958485841751,-0.5940667986869812,-0.002934649121016264,0.0013889414258301258,26.42,0.01,0.11,0.97,0.09,0.28,0.0,0.0
1.821275299997069,0,0,0,0,1,64,8624182,3.2629988193511963,0.712022602558136,1.319223403930664,0.3909416198730469,-0.8903318643569946,-0.007982379756867886,-0.00508005591109395,26.42,0.0,0.18,1.0,0.0,0.27,0.0,0.0
1.8463468999834731,0,0,0,0,1,64,8624207,3.2735369205474854,0.7843753695487976,1.269113540649414,0.9553514719009399,-1.1488449573516846,-0.003581695957109332,0.008663826622068882,26.42,0.0,0.14,1.1500000000000001,0.0,0.32,0.0,0.0
1.883753500005696,0,0,0,0,1,64,8624244,3.278970718383789,0.9032589793205261,1.2128673791885376,1.6859389543533325,-1.2961621284484863,-0.00039956459659151733,-0.004649721551686525,26.400000000000002,0.0,0.05,1.16,0.0,0.28,0.0,0.0
1.9083365999977104,0,0,0,0,1,64,8624269,3.277571201324463,0.9840485453605652,1.1911360025405884,2.04293155670166,-1.2108385562896729,0.0050383927300572395,0.0017327649984508753,26.42,0.11,0.05,1.11,0.0,0.09,0.0,0.09
1.9463060999987647,0,0,0,0,1,64,8624307,3.269835948944092,1.1088123321533203,1.1660810708999634,2.449647903442383,-1.0208784341812134,-0.007104040589183569,-0.0014821365475654602,26.42,0.06,0.11,1.08,0.0,0.0,0.0,0.25
1.9767491999955382,0,0,0,0,1,64,8624337,3.259988307952881,1.20596444606781,1.1402591466903687,2.6599907875061035,-0.9625856280326843,-0.005569978151470423,-0.004658982157707214,26.42,0.06,0.11,0.9400000000000001,0.0,0.0,0.0,0.27
2.0080077000020538,0,0,0,0,1,64,8624368,3.2518470287323,1.2939127683639526,1.106000304222107,2.7207417488098145,-0.9945183396339417,-0.0067924074828624725,0.008004219271242619,26.42,0.0,0.06,0.87,0.0,0.0,0.0,0.16
2.0381517999921925,0,0,0,0,1,64,8624399,3.2480878829956055,1.3629417419433594,1.0658611059188843,2.5929384231567383,-1.0700621604919434,-0.0009651059517636895,0.0043102228082716465,26.44,0.0,0.06,0.8200000000000001,0.0,0.0,0.0,0.03
2.06941949998145,0,0,0,0,1,64,8624430,3.2472047805786133,1.4140745401382446,1.019330382347107,2.3376622200012207,-1.182758092880249,0.003287912579253316,0.005359093192964792,26.44,0.12,0.04,0.85,0.0,0.0,0.0,0.0
2.1012370999960694,0,0,0,0,1,64,8624462,3.2477123737335205,1.4514013528823853,0.9671748280525208,2.0102486610412598,-1.3097352981567383,0.007562269922345877,0.001649087411351502,26.42,0.08,0.03,0.88,0.0,0.0,0.0,0.0
2.1264217999996617,0,0,0,0,1,64,8624487,3.2474350929260254,1.4695534706115723,0.9275471568107605,1.7224688529968262,-1.3771535158157349,0.007878880016505718,0.0017824945971369743,26.400000000000002,0.0,0.0,0.92,0.0,0.0,0.06,0.03
2.163574599981075,0,0,0,0,1,64,8624524,3.244938611984253,1.4769678115844727,0.8789710998535156,1.2410880327224731,-1.3672637939453125,0.005032083950936794,0.0017256838036701083,26.42,0.0,0.0,1.03,0.0,0.05,0.13,0.22
2.188420499995118,0,0,0,0,1,64,8624549,3.238203287124634,1.4772233963012695,0.8508481979370117,0.9478691816329956,-1.3104699850082397,0.01575399376451969,-0.0047737956047058105,26.42,0.12,0.0,1.04,0.02,0.1,0.13,0.5
2.227058799995575,0,0,0,0,1,64,8624588,3.2175779342651367,1.4700647592544556,0.8130099177360535,0.5739186406135559,-1.1988457441329956,-0.0025492345448583364,8.89170914888382e-05,26.44,0.0,0.0,0.92,0.1,0.2,0.11,0.62
2.258623300003819,0,0,0,0,1,64,8624619,3.201537847518921,1.4506343603134155,0.7920455932617188,0.25345516204833984,-1.0573840141296387,7.690058555454016e-05,0.0025470959953963757,26.400000000000002,0.0,0.0,0.86,0.12,0.23,0.06,0.43
2.2899332999950275,0,0,0,0,1,64,8624650,3.1920790672302246,1.426857590675354,0.7774727940559387,-0.033209118992090225,-0.8953032493591309,0.0026419952046126127,-0.0042982446029782295,26.42,0.06,0.0,0.89,0.03,0.2,0.0,0.2
2.320396700000856,0,0,0,0,1,64,8624681,3.188178062438965,1.4125404357910156,0.7593205571174622,-0.16687172651290894,-0.7995215654373169,-0.0040072123520076275,-0.0028980420902371407,26.42,0.0,0.0,1.0,0.0,0.12,0.0,0.13
2.351335499988636,0,0,0,0,1,64,8624712,3.187506914138794,1.4081941843032837,0.7332429885864258,-0.16818104684352875,-0.8011971116065979,0.010002078488469124,0.0029038838110864162,26.42,0.03,0.0,1.02,0.03,0.04,0.0,0.03
2.3826367000001483,0,0,0,0,1,64,8624743,3.191213369369507,1.4079385995864868,0.7058868408203125,-0.11840609461069107,-0.8271123766899109,0.01283322460949421,0.003015583846718073,26.42,0.09,0.0,1.03,0.04,0.01,0.0,0.0
2.4144167999911588,0,0,0,0,1,64,8624775,3.194580316543579,1.4069160223007202,0.6882460713386536,-0.08643505722284317,-0.7635676264762878,0.007719129323959351,0.006111402530223131,26.400000000000002,0.0,0.0,1.17,0.0,0.02,0.0,0.09
2.4394781999872066,0,0,0,0,1,64,8624800,3.1941776275634766,1.399246096611023,0.6833887100219727,-0.12413047254085541,-0.6445517539978027,0.004873701836913824,-0.0062928274273872375,26.42,0.0,0.0,1.17,0.0,0.0,0.0,0.13
2.476712400006363,0,0,0,0,1,64,8624837,3.1975512504577637,1.3754693269729614,0.6838998794555664,-0.2822994589805603,-0.4306832253932953,-0.00017417268827557564,-0.004224455915391445,26.42,0.0,0.03,0.89,0.0,0.07,0.0,0.0
2.5016013999993447,0,0,0,0,1,64,8624862,3.207017421722412,1.3527153730392456,0.6882460713386536,-0.41892099380493164,-0.300458699464798,-0.00315006822347641,-0.012829853221774101,26.42,0.17,0.26,0.89,0.0,0.01,0.0,0.0
2.5373722999938764,0,0,0,0,1,64,8624898,3.227501630783081,1.3000484704971313,0.7296635508537292,-0.7253201603889465,0.11553169786930084,-0.0025324570015072823,-0.01193052064627409,26.44,0.08,0.28,1.04,0.0,0.0,0.1,0.0
2.5586705000023358,0,0,0,0,1,64,8624919,3.242680788040161,1.260420799255371,0.7782395482063293,-0.9510253071784973,0.5191757678985596,-0.005155270453542471,-0.004663367755711079,26.44,0.0,0.13,1.07,0.0,0.0,0.07,0.0
2.5837615999917034,0,0,0,0,1,64,8624944,3.2572317123413086,1.2136343717575073,0.8526375889778137,-1.1718783378601074,1.0703691244125366,-0.003465852700173855,0.004500545095652342,26.400000000000002,0.0,0.08,1.2,0.08,0.0,0.01,0.0
2.61475259999861,0,0,0,0,1,64,8624975,3.2626099586486816,1.1694046258926392,0.9600165486335754,-1.264295220375061,1.7313697338104248,0.002181879710406065,0.0006779730319976807,26.44,0.0,0.04,1.25,0.0,0.0,0.01,0.0
2.645853199996054,0,0,0,0,1,64,8625006,3.256575345993042,1.1405147314071655,1.0742979049682617,-1.1813462972640991,2.27964186668396,0.011135122738778591,-0.00783118512481451,26.400000000000002,0.06,0.11,1.1,0.0,0.08,0.14,0.22
2.676629800000228,0,0,0,0,1,64,8625037,3.2452595233917236,1.1144369840621948,1.183721899986267,-1.0744825601577759,2.6322546005249023,0.004382418468594551,-0.0059824115596711636,26.400000000000002,0.0,0.2,0.92,0.0,0.25,0.26,0.26
2.707717599987518,0,0,0,0,1,64,8625068,3.23551082611084,1.0817121267318726,1.2893108129501343,-1.0563808679580688,2.855701446533203,0.0015855669043958187,-0.006892726756632328,26.42,0.0,0.14,0.85,0.0,0.36,0.28,0.17
2.7396214999898802,0,0,0,0,1,64,8625100,3.230409622192383,1.0425955057144165,1.3803272247314453,-1.0998883247375488,2.8655307292938232,0.0035806160885840654,-0.005864376202225685,26.42,0.01,0.09,0.84,0.0,0.3,0.23,0.05
2.764689700008603,0,0,0,0,1,64,8625125,3.2286202907562256,1.0098705291748047,1.4335050582885742,-1.1456961631774902,2.7124147415161133,0.0012605265947058797,-0.010394471697509289,26.44,0.14,0.08,0.84,0.0,0.18,0.23,0.0
2.801246299990453,0,0,0,0,1,64,8625162,3.2281951904296875,0.9602718353271484,1.4892396926879883,-1.2052210569381714,2.3293654918670654,-0.0023467980790883303,-0.0016168680740520358,26.400000000000002,0.0,0.05,0.91,0.0,0.08,0.24,0.0
2.826671799994074,0,0,0,0,1,64,8625187,3.228034019470215,0.9260129928588867,1.5132721662521362,-1.2419427633285522,2.018371820449829,0.0027914363890886307,0.004263119772076607,26.400000000000002,0.0,0.02,0.9,0.0,0.08,0.23,0.0
2.863747199997306,0,0,0,0,1,64,8625224,3.2259328365325928,0.8779481053352356,1.5273336172103882,-1.2619062662124634,1.501617193222046,0.002679293043911457,-0.0016072381986305118,26.400000000000002,0.11,0.0,0.96,0.0,0.06,0.19,0.1
2.888676200003829,0,0,0,0,1,64,8625249,3.222316026687622,0.8518705368041992,1.5260553359985352,-1.219909429550171,1.1452800035476685,-0.0001129951560869813,0.012853924185037613,26.44,0.01,0.0,1.07,0.0,0.02,0.18,0.32
2.926674999995157,0,0,0,0,1,64,8625287,3.2071027755737305,0.8245145678520203,1.5148061513900757,-1.062072515487671,0.6745894551277161,0.0017707835650071502,0.002741839736700058,26.42,0.0,0.0,1.03,0.0,0.0,0.24,0.64
2.9579545999877155,0,0,0,0,1,64,8625318,3.1881797313690186,0.8107087016105652,1.494097352027893,-0.8924194574356079,0.3104504346847534,0.008270124904811382,-0.004614862147718668,26.42,0.01,0.0,0.93,0.0,0.0,0.3,0.71
2.9884828999929596,0,0,0,0,1,64,8625349,3.168724298477173,0.7958803176879883,1.469298005104065,-0.7697272896766663,0.0014417758211493492,-0.0016023023054003716,-0.006620103493332863,26.44,0.0,0.1,0.77,0.0,0.0,0.31,0.52
3.019770199985942,0,0,0,0,1,64,8625380,3.157424211502075,0.7746601104736328,1.4493564367294312,-0.7360822558403015,-0.18485867977142334,-0.0025303224101662636,0.007373337633907795,26.400000000000002,0.0,0.07,0.81,0.04,0.0,0.26,0.16
3.050608799996553,0,0,0,0,1,64,8625411,3.1571290493011475,0.7457701563835144,1.4391298294067383,-0.7815782427787781,-0.2333974689245224,0.0015805857256054878,0.0057819318026304245,26.400000000000002,0.01,0.0,0.9400000000000001,0.03,0.0,0.19,0.0
3.082310600002529,0,0,0,0,1,64,8625443,3.167083263397217,0.7104886174201965,1.4358059167861938,-0.873296856880188,-0.19717149436473846,0.004590350203216076,-0.027856407687067986,26.42,0.04,0.0,1.09,0.0,0.0,0.11,0.0
3.1071990999917034,0,0,0,0,1,64,8625468,3.177072763442993,0.6828770637512207,1.435550332069397,-0.9301396012306213,-0.14915569126605988,0.002689291723072529,-0.029779469594359398,26.42,0.0,0.0,1.25,0.0,0.03,0.05,0.0
3.1441602999984752,0,0,0,0,1,64,8625505,3.188528537750244,0.6585890650749207,1.4260908365249634,-0.8630192875862122,-0.16622719168663025,0.004144072532653809,-0.019674772396683693,26.400000000000002,0.0,0.01,1.08,0.0,0.06,0.03,0.0
3.175790799985407,0,0,0,0,1,64,8625536,3.202143907546997,0.659100353717804,1.4033368825912476,-0.631515622138977,-0.31209805607795715,0.0056926957331597805,-0.006761868484318256,26.44,0.12,0.15,0.9400000000000001,0.02,0.02,0.0,0.0
3.2066727000055835,0,0,0,0,1,64,8625567,3.223219633102417,0.6775080561637878,1.368822455406189,-0.3129940629005432,-0.5218260288238525,0.002388307359069586,-0.0023264389019459486,26.42,0.12,0.21,0.9500000000000001,0.11,0.23,0.0,0.0
3.2373593999946024,0,0,0,0,1,64,8625598,3.2458267211914062,0.7255727648735046,1.3176895380020142,0.17522206902503967,-0.8193783164024353,0.0007716364925727248,-0.0021891118958592415,26.42,0.0,0.27,0.92,0.0,0.27,0.0,0.0
3.268020899995463,0,0,0,0,1,64,8625628,3.2639219760894775,0.7966472506523132,1.2593984603881836,0.7553097605705261,-1.1211217641830444,-0.0003140931949019432,0.0056476895697414875,26.44,0.0,0.16,1.17,0.0,0.3,0.0,0.0
3.2994476000021677,0,0,0,0,1,64,8625660,3.27549409866333,0.8881747126579285,1.2080100774765015,1.3531644344329834,-1.2791255712509155,-0.003137365449219942,0.013160772621631622,26.44,0.08,0.07,1.21,0.0,0.18,0.0,0.0
3.3237936999939848,0,0,0,0,1,64,8625684,3.278931140899658,0.9625727534294128,1.1816765069961548,1.7387669086456299,-1.254306674003601,-0.003391623729839921,0.005422752350568771,26.400000000000002,0.0,0.01,1.17,0.0,0.02,0.0,0.0
3.3621316000062507,0,0,0,0,1,64,8625723,3.2750961780548096,1.0888705253601074,1.151763916015625,2.237330675125122,-1.088255763053894,0.0008557046530768275,-0.0019109711283817887,26.42,0.08,0.05,1.08,0.0,0.0,0.0,0.18
3.3936082999862265,0,0,0,0,1,64,8625754,3.2666237354278564,1.1883236169815063,1.127987265586853,2.5081257820129395,-0.9886669516563416,-0.0009198070038110018,-0.002190341241657734,26.44,0.08,0.11,0.96,0.0,0.0,0.0,0.27
3.4246896999829914,0,0,0,0,1,64,8625785,3.257317304611206,1.2803624868392944,1.096029281616211,2.645033597946167,-0.9875952005386353,0.001174854813143611,0.0009650647989474237,26.400000000000002,0.0,0.08,0.93,0.0,0.0,0.0,0.23
3.4561187000072096,0,0,0,0,1,64,8625817,3.250626564025879,1.3591068983078003,1.0553789138793945,2.6047894954681396,-1.0614562034606934,-0.005033351946622133,-0.0006943669868633151,26.42,0.08,0.07,0.89,0.03,0.0,0.0,0.08
3.480941799993161,0,0,0,0,1,64,8625841,3.2483301162719727,1.4041036367416382,1.0203529596328735,2.4556844234466553,-1.1449085474014282,-0.004091755021363497,0.0023906356655061245,26.400000000000002,0.0,0.09,0.86,0.04,0.0,0.0,0.01
3.5188561999821104,0,0,0,0,1,64,8625879,3.2476651668548584,1.4526796340942383,0.9635956883430481,2.0737245082855225,-1.2646212577819824,0.00030920602148398757,-0.004212650936096907,26.42,0.0,0.03,0.9400000000000001,0.03,0.0,0.0,0.0
3.5485226000018883,0,0,0,0,1,64,8625909,3.246943473815918,1.4710874557495117,0.9209000468254089,1.6895323991775513,-1.3099161386489868,-0.0027498635463416576,0.0005171755328774452,26.400000000000002,0.0,0.0,0.93,0.0,0.0,0.0,0.05
3.578938399994513,0,0,0,0,1,64,8625939,3.2445499897003174,1.4759451150894165,0.8835728764533997,1.2823898792266846,-1.2954387664794922,-0.0025901272892951965,-0.006368257105350494,26.400000000000002,0.0,0.0,0.9400000000000001,0.03,0.0,0.0,0.19
3.610301899985643,0,0,0,0,1,64,8625971,3.236736297607422,1.47568941116333,0.8518708348274231,0.9064409136772156,-1.2149614095687866,-0.001820172881707549,0.0033263778313994408,26.42,0.01,0.0,0.93,0.07,0.02,0.0,0.51
3.6348965000070166,0,0,0,0,1,64,8625995,3.224799633026123,1.4741554260253906,0.8347412943840027,0.6926707625389099,-1.1096656322479248,-0.0030961441807448864,-0.0007407607045024633,26.44,0.0,0.0,0.87,0.07,0.11,0.0,0.67
3.6724480999982916,0,0,0,0,1,64,8626033,3.2033348083496094,1.4560033082962036,0.8160778880119324,0.3212112784385681,-0.9080395698547363,-0.0026920039672404528,0.003980586305260658,26.400000000000002,0.0,0.0,0.92,0.03,0.17,0.0,0.56
3.7040048000053503,0,0,0,0,1,64,8626064,3.19050669670105,1.4322266578674316,0.7989482879638672,0.02113746851682663,-0.796237587928772,0.00116278778295964,-0.003411404322832823,26.44,0.0,0.03,0.86,0.01,0.14,0.0,0.35000000000000003
3.734715700004017,0,0,0,0,1,64,8626095,3.1852712631225586,1.4148415327072144,0.7710809707641602,-0.1538662314414978,-0.8083020448684692,0.005332093220204115,-0.0022009629756212234,26.400000000000002,0.0,0.03,0.93,0.0,0.08,0.0,0.05
3.765902199986158,0,0,0,0,1,64,8626126,3.1887998580932617,1.4056376218795776,0.7350327372550964,-0.19796624779701233,-0.9040030837059021,0.010058182291686535,-0.0031592422164976597,26.42,0.2,0.0,1.0,0.0,0.05,0.0,0.0
3.796561399998609,0,0,0,0,1,64,8626157,3.1969187259674072,1.3984791040420532,0.7035859227180481,-0.20211561024188995,-0.9484382271766663,0.0009898262796923518,-0.003920592367649078,26.44,0.0,0.0,1.05,0.04,0.07,0.0,0.0
3.828521699993871,0,0,0,0,1,64,8626189,3.204421043395996,1.3818608522415161,0.6892687678337097,-0.27645042538642883,-0.8300557136535645,0.008692563511431217,0.007855025120079517,26.44,0.08,0.03,1.21,0.0,0.0,0.0,0.0
3.8529487999912817,0,0,0,0,1,64,8626213,3.20822811126709,1.3606408834457397,0.6910584568977356,-0.3991841673851013,-0.63608717918396,-0.0010402256157249212,0.017341753467917442,26.44,0.09,0.17,0.99,0.0,0.0,0.0,0.0
3.890153399988776,0,0,0,0,1,64,8626251,3.225109815597534,1.3187121152877808,0.7074210047721863,-0.6273187398910522,-0.2973770201206207,-0.005496691912412643,0.003120059845969081,26.42,0.08,0.28,1.08,0.0,0.0,0.0,0.0
3.921416400000453,0,0,0,0,1,64,8626282,3.2469940185546875,1.2747379541397095,0.752161979675293,-0.8374268412590027,0.15155412256717682,2.4701585061848164e-06,0.004922555759549141,26.400000000000002,0.09,0.16,1.1,0.0,0.0,0.09,0.0
3.9527276000007987,0,0,0,0,1,64,8626313,3.265519380569458,1.225906252861023,0.8275826573371887,-1.0394892692565918,0.7604972720146179,-0.0024070842191576958,0.0009821609128266573,26.42,0.0,0.09,1.08,0.03,0.0,0.03,0.0
3.9846956999972463,0,0,0,0,1,64,8626345,3.274923324584961,1.180909514427185,0.9301039576530457,-1.1564326286315918,1.4426114559173584,-0.0026269310619682074,-0.002750653773546219,26.42,0.11,0.03,1.21,0.16,0.0,0.0,0.0
4.008981899998616,0,0,0,0,1,64,8626369,3.273500919342041,1.1566214561462402,1.0170291662216187,-1.1368032693862915,1.9280239343643188,-0.00537691917270422,-0.001903911354020238,26.42,0.12,0.11,1.1400000000000001,0.03,0.01,0.0,0.11
4.047184199996991,0,0,0,0,1,64,8626408,3.2620670795440674,1.12824285030365,1.1553430557250977,-0.9986684918403625,2.479116678237915,0.0030904565937817097,-0.00518752122297883,26.42,0.0,0.14,1.03,0.0,0.23,0.11,0.26
4.077864499995485,0,0,0,0,1,64,8626438,3.2514116764068604,1.1039546728134155,1.2586313486099243,-0.9351044297218323,2.7427549362182617,0.002549573313444853,-0.0032902653329074383,26.44,0.04,0.12,0.97,0.0,0.35000000000000003,0.25,0.26
4.108635099983076,0,0,0,0,1,64,8626469,3.2425484657287598,1.0717411041259766,1.357061743736267,-0.9537327289581299,2.872465133666992,0.005866058170795441,0.0026779663749039173,26.44,0.0,0.07,0.89,0.0,0.32,0.25,0.18
4.138925399980508,0,0,0,0,1,64,8626499,3.237401247024536,1.0351811647415161,1.4347833395004272,-1.022755742073059,2.8033363819122314,0.009697983041405678,0.008305740542709827,26.44,0.0,0.07,0.86,0.0,0.27,0.24,0.1
4.170128500001738,0,0,0,0,1,64,8626531,3.233811855316162,0.989417552947998,1.5007444620132446,-1.1335722208023071,2.601151943206787,0.004886275622993708,0.004936679266393185,26.44,0.03,0.03,0.88,0.0,0.2,0.22,0.03
4.195516599982511,0,0,0,0,1,64,8626556,3.2329883575439453,0.9520905613899231,1.5383270978927612,-1.2146167755126953,2.3572633266448975,0.005216780584305525,0.001025443198159337,26.400000000000002,0.0,0.0,0.89,0.0,0.16,0.2,0.02
4.232615699991584,0,0,0,0,1,64,8626593,3.231656312942505,0.8989126086235046,1.5674728155136108,-1.28817617893219,1.866991639137268,0.005748332478106022,-0.004280208609998226,26.42,0.0,0.0,0.9400000000000001,0.0,0.12,0.22,0.02
4.263698700000532,0,0,0,0,1,64,8626624,3.230905771255493,0.8610744476318359,1.5695180892944336,-1.275073766708374,1.372937798500061,0.008903958834707737,0.000605906592682004,26.44,0.08,0.0,0.96,0.0,0.1,0.17,0.13
4.295454699982656,0,0,0,0,1,64,8626656,3.225236415863037,0.8311617970466614,1.5633821487426758,-1.1840553283691406,0.9241967797279358,0.0042405519634485245,-0.0005113254301249981,26.400000000000002,0.11,0.0,0.9500000000000001,0.0,0.03,0.1,0.43
4.320130699983565,0,0,0,0,1,64,8626681,3.215158700942993,0.8150550723075867,1.551365852355957,-1.0666574239730835,0.6089470982551575,-0.0014927268493920565,-0.0031923819333314896,26.42,0.06,0.0,0.96,0.0,0.0,0.04,0.6
4.357677899999544,0,0,0,0,1,64,8626718,3.1947689056396484,0.796391487121582,1.5201749801635742,-0.8791702389717102,0.14789250493049622,0.0004664070438593626,-0.004328500013798475,26.42,0.01,0.0,0.89,0.0,0.0,0.01,0.64
4.38889790000394,0,0,0,0,1,64,8626749,3.179361343383789,0.7764498591423035,1.4882169961929321,-0.8046010136604309,-0.17845943570137024,0.005782307591289282,0.0023104797583073378,26.42,0.17,0.03,0.8300000000000001,0.0,0.0,0.0,0.38
4.419091699994169,0,0,0,0,1,64,8626780,3.1724867820739746,0.7455145716667175,1.4652074575424194,-0.8435897827148438,-0.3494214415550232,0.01042169239372015,-0.0006024104077368975,26.44,0.08,0.06,0.88,0.04,0.0,0.0,0.05
4.450337299989769,0,0,0,0,1,64,8626811,3.1744847297668457,0.7028188705444336,1.4570261240005493,-0.983189582824707,-0.3383641242980957,0.004959552548825741,0.004915185738354921,26.42,0.0,0.0,0.99,0.0,0.0,0.02,0.0
4.481606099987403,0,0,0,0,1,64,8626842,3.182819366455078,0.6573107838630676,1.4562591314315796,-1.1253876686096191,-0.2429088056087494,0.008216377347707748,-0.0011260055471211672,26.42,0.0,0.0,1.08,0.0,0.03,0.2,0.0
4.512671500007855,0,0,0,0,1,64,8626873,3.190770149230957,0.6194725036621094,1.4557479619979858,-1.1657657623291016,-0.17637751996517181,0.004444904159754515,-0.005723146256059408,26.42,0.01,0.01,1.3900000000000001,0.0,0.18,0.33,0.0
4.543871700007003,0,0,0,0,1,64,8626904,3.1942508220672607,0.5992751121520996,1.4508901834487915,-1.0430296659469604,-0.1582392156124115,-0.0015901925507932901,-0.01089412346482277,26.400000000000002,0.0,0.0,1.1400000000000001,0.0,0.13,0.29,0.0
4.574665099993581,0,0,0,0,1,64,8626935,3.2011704444885254,0.6025988459587097,1.4322267770767212,-0.7370677590370178,-0.2682555913925171,0.004891195334494114,-0.004409069195389748,26.42,0.0,0.21,0.93,0.0,0.01,0.11,0.0
4.605951100005768,0,0,0,0,1,64,8626966,3.22001051902771,0.618449866771698,1.4064048528671265,-0.4006200134754181,-0.4175717532634735,0.000635441392660141,-0.004852860234677792,26.44,0.04,0.1,0.97,0.16,0.16,0.0,0.0
4.636932900000829,0,0,0,0,1,64,8626997,3.24255108833313,0.6642136573791504,1.3685665130615234,0.08984921872615814,-0.6289200186729431,-0.0008511320338584483,-0.003278581192716956,26.400000000000002,0.0,0.14,0.9500000000000001,0.06,0.1,0.0,0.0
4.667926399997668,0,0,0,0,1,64,8627028,3.2572689056396484,0.7457701563835144,1.3151330947875977,0.7680275440216064,-0.9207857251167297,-0.0026586661115288734,-0.0031398043502122164,26.42,0.04,0.13,1.1,0.0,0.13,0.0,0.0
4.69912549998844,0,0,0,0,1,64,8627060,3.2634353637695312,0.8480356335639954,1.2619549036026,1.4614965915679932,-1.1490753889083862,-0.003932487219572067,-0.0010921615175902843,26.44,0.0,0.08,1.21,0.0,0.18,0.0,0.0
4.724338500003796,0,0,0,0,1,64,8627085,3.2641172409057617,0.9306149482727051,1.2320423126220703,1.8924764394760132,-1.1788980960845947,0.0005552805378101766,-0.0056509715504944324,26.42,0.0,0.03,1.1500000000000001,0.0,0.12,0.0,0.0
4.761243199987803,0,0,0,0,1,64,8627122,3.259911060333252,1.0541003942489624,1.2036638259887695,2.3498594760894775,-1.0466740131378174,0.0003373012878000736,-0.0020552261266857386,26.42,0.12,0.1,1.09,0.0,0.0,0.0,0.11
4.792508099984843,0,0,0,0,1,64,8627153,3.252690553665161,1.1578997373580933,1.180909514427185,2.620537757873535,-0.9467021822929382,-0.01105466578155756,0.002587494906038046,26.42,0.0,0.1,1.02,0.01,0.0,0.0,0.21
4.824160599993775,0,0,0,0,1,64,8627185,3.243812322616577,1.2591423988342285,1.1479288339614868,2.7788355350494385,-0.9580069780349731,-0.007169869262725115,-0.0010274677770212293,26.44,0.06,0.07,1.0,0.0,0.0,0.0,0.18
4.849265600001672,0,0,0,0,1,64,8627210,3.2388646602630615,1.3268932104110718,1.1175050735473633,2.7772693634033203,-1.0109927654266357,-0.00499007711187005,0.000488618272356689,26.400000000000002,0.0,0.07,0.85,0.03,0.0,0.0,0.08
4.88609610000276,0,0,0,0,1,64,8627246,3.2362239360809326,1.4023140668869019,1.06918466091156,2.572408676147461,-1.110125184059143,-0.01049526035785675,-0.0002589725481811911,26.42,0.09,0.08,0.89,0.03,0.0,0.0,0.0
4.9064005999825895,0,0,0,0,1,64,8627267,3.2363040447235107,1.4347833395004272,1.038504958152771,2.379012107849121,-1.1778929233551025,-0.013223362155258656,-0.002488218480721116,26.44,0.0,0.05,0.88,0.04,0.0,0.0,0.0
4.932274699996924,0,0,0,0,1,64,8627293,3.2366087436676025,1.4644402265548706,0.9981101155281067,2.0922906398773193,-1.2643334865570068,-0.011482276022434235,-0.0019841124303638935,26.400000000000002,0.08,0.04,0.89,0.0,0.0,0.0,0.0
4.962731499981601,0,0,0,0,1,64,8627323,3.2365851402282715,1.4841264486312866,0.9520909190177917,1.7106062173843384,-1.3406704664230347,0.001554427552036941,0.003957837354391813,26.42,0.09,0.0,0.93,0.0,0.0,0.0,0.04
4.9935816999932285,0,0,0,0,1,64,8627354,3.2341129779815674,1.4887281656265259,0.9091393351554871,1.2843832969665527,-1.3591970205307007,0.002699765143916011,-0.0011386657133698463,26.400000000000002,0.0,0.0,0.9500000000000001,0.03,0.0,0.01,0.21
5.023737699986668,0,0,0,0,1,64,8627384,3.2256388664245605,1.4869385957717896,0.8766701817512512,0.9171580672264099,-1.2927584648132324,0.00855774711817503,0.006615220103412867,26.400000000000002,0.09,0.0,0.92,0.11,0.1,0.01,0.54
5.0544103999855,0,0,0,0,1,64,8627415,3.209500789642334,1.4774789810180664,0.8531491160392761,0.583564281463623,-1.1505306959152222,-0.004880130290985107,0.003390164813026786,26.42,0.03,0.0,0.9,0.12,0.2,0.0,0.66
5.08648309999262,0,0,0,0,1,64,8627447,3.1907219886779785,1.4590712785720825,0.832951545715332,0.25595346093177795,-0.996535062789917,-0.0032410165295004845,0.0031020413152873516,26.42,0.03,0.0,0.86,0.04,0.18,0.0,0.58
5.11144089998561,0,0,0,0,1,64,8627472,3.1791250705718994,1.4442428350448608,0.8130099177360535,0.05723179131746292,-0.9366732239723206,0.0008136230753734708,0.00435479125007987,26.42,0.08,0.09,0.84,0.01,0.18,0.0,0.34
5.1483251999889035,0,0,0,0,1,64,8627509,3.173682928085327,1.432482361793518,0.7733821868896484,-0.07525279372930527,-0.9689319729804993,0.004723688121885061,-0.001305956393480301,26.400000000000002,0.0,0.07,0.96,0.0,0.14,0.0,0.01
5.173420000006445,0,0,0,0,1,64,8627534,3.1768107414245605,1.4286473989486694,0.7450034022331238,-0.0916181355714798,-1.0103535652160645,0.0028665103018283844,-0.002699147444218397,26.44,0.11,0.0,1.03,0.0,0.1,0.0,0.0
5.210361300007207,0,0,0,0,1,64,8627571,3.1878433227539062,1.4204660654067993,0.7150907516479492,-0.12502822279930115,-0.9613981246948242,-0.005345197860151529,0.00471058813855052,26.42,0.0,0.0,1.09,0.04,0.08,0.0,0.0
5.235372800001642,0,0,0,0,1,64,8627596,3.1945884227752686,1.4104951620101929,0.706653892993927,-0.17925900220870972,-0.8296155333518982,-0.0034498039167374372,0.0060129957273602486,26.42,0.0,0.0,1.26,0.0,0.04,0.0,0.0
5.272180900006788,0,0,0,0,1,64,8627633,3.197836399078369,1.385184645652771,0.7063983082771301,-0.3319529891014099,-0.5642080307006836,-0.0032517602667212486,0.024288209155201912,26.44,0.0,0.13,0.92,0.0,0.0,0.0,0.0
5.297414300002856,0,0,0,0,1,64,8627658,3.206287384033203,1.3616634607315063,0.7081880569458008,-0.4697412848472595,-0.41999611258506775,-0.002821783535182476,0.03351343795657158,26.42,0.03,0.14,0.88,0.0,0.0,0.0,0.0
5.334943199995905,0,0,0,0,1,64,8627695,3.227501392364502,1.3174337148666382,0.7347767949104309,-0.6921821236610413,-0.08429507166147232,0.0026897152420133352,0.012526038102805614,26.42,0.08,0.32,1.07,0.0,0.0,0.07,0.0
5.3594787000038195,0,0,0,0,1,64,8627720,3.2439279556274414,1.2806181907653809,0.7761942744255066,-0.8673987984657288,0.29316726326942444,0.004689457826316357,0.0026060715317726135,26.400000000000002,0.0,0.19,0.96,0.0,0.0,0.1,0.0
5.3970389000023715,0,0,0,0,1,64,8627757,3.264657497406006,1.2292298078536987,0.8697671890258789,-1.0445687770843506,0.9900529980659485,0.00313110020942986,0.0048505207523703575,26.44,0.0,0.09,1.12,0.1,0.0,0.07,0.0
5.421833600004902,0,0,0,0,1,64,8627782,3.2708723545074463,1.2039190530776978,0.9492785334587097,-1.051971197128296,1.4838416576385498,0.003704699920490384,0.0016941537614911795,26.42,0.12,0.04,1.21,0.04,0.0,0.05,0.0
5.458683799981372,0,0,0,0,1,64,8627819,3.2681517601013184,1.1814208030700684,1.077877402305603,-0.9151511192321777,2.1249232292175293,0.006959540769457817,-0.0018778975354507565,26.42,0.06,0.0,1.11,0.0,0.11,0.1,0.1
5.483480099996086,0,0,0,0,1,64,8627844,3.262019395828247,1.170938491821289,1.1612234115600586,-0.7944871187210083,2.410284996032715,0.0056466348469257355,-0.0024973528925329447,26.42,0.12,0.1,1.05,0.0,0.23,0.25,0.2
5.520403999980772,0,0,0,0,1,64,8627881,3.251668691635132,1.1435824632644653,1.2839418649673462,-0.7570945620536804,2.699117422103882,0.004314104560762644,-0.002094237133860588,26.42,0.0,0.12,0.98,0.0,0.3,0.33,0.16
5.54541339998832,0,0,0,0,1,64,8627906,3.2462878227233887,1.1146925687789917,1.357061743736267,-0.8382347226142883,2.767852544784546,0.0009870390640571713,0.0016862116754055023,26.400000000000002,0.09,0.14,0.93,0.0,0.27,0.33,0.09
5.583270400005858,0,0,0,0,1,64,8627944,3.241652727127075,1.0597249269485474,1.4460325241088867,-1.0346968173980713,2.63358473777771,0.005378064699470997,-0.002395691117271781,26.400000000000002,0.0,0.02,0.92,0.0,0.24,0.36,0.02
5.615024900005665,0,0,0,0,1,64,8627975,3.240060806274414,1.010381817817688,1.4979323148727417,-1.190327763557434,2.3791730403900146,0.00967998243868351,-0.007530194707214832,26.44,0.01,0.0,0.92,0.0,0.14,0.39,0.0
5.646319899999071,0,0,0,0,1,64,8628007,3.239638566970825,0.9612944722175598,1.530657172203064,-1.2908381223678589,2.0029208660125732,0.0029850879218429327,-0.002623908221721649,26.44,0.17,0.0,0.93,0.0,0.13,0.39,0.0
5.671776700008195,0,0,0,0,1,64,8628032,3.2391159534454346,0.9252459406852722,1.5424176454544067,-1.3278433084487915,1.6589680910110474,0.00010813353583216667,-0.010274969041347504,26.42,0.12,0.0,0.92,0.0,0.15,0.37,0.05
5.707097599981353,0,0,0,0,1,64,8628067,3.2357656955718994,0.8797378540039062,1.543184757232666,-1.3213552236557007,1.1575405597686768,0.00824271235615015,-0.003337323432788253,26.42,0.0,0.0,0.96,0.0,0.11,0.31,0.22
5.728504400001839,0,0,0,0,1,64,8628089,3.230724811553955,0.8557054400444031,1.5413950681686401,-1.2802025079727173,0.8983281254768372,0.008595496416091919,-0.016878431662917137,26.42,0.08,0.0,0.91,0.0,0.04,0.23,0.4
5.753862299985485,0,0,0,0,1,64,8628114,3.2208750247955322,0.8339740633964539,1.5344921350479126,-1.1904044151306152,0.6339914202690125,0.0010762406745925546,-0.011010578833520412,26.400000000000002,0.0,0.0,0.9,0.0,0.0,0.19,0.53
5.784504299983382,0,0,0,0,1,64,8628145,3.2059388160705566,0.8135210871696472,1.5163401365280151,-1.0455600023269653,0.30482515692710876,0.0009121422190219164,-0.008119558915495872,26.42,0.09,0.0,0.88,0.0,0.0,0.16,0.5700000000000001
5.815503699996043,0,0,0,0,1,64,8628176,3.1914656162261963,0.7915339469909668,1.4910293817520142,-0.9427935481071472,-0.0023292023688554764,-0.002054049400612712,0.0020424106623977423,26.42,0.03,0.04,0.86,0.0,0.0,0.11,0.41000000000000003
5.8459956999868155,0,0,0,0,1,64,8628206,3.1831860542297363,0.7611100077629089,1.4708318710327148,-0.9473984837532043,-0.195697620511055,-0.005000879522413015,-0.0015915888361632824,26.44,0.0,0.03,0.89,0.0,0.0,0.1,0.16
5.876680499990471,0,0,0,0,1,64,8628237,3.181759834289551,0.7204594612121582,1.4590715169906616,-1.0420500040054321,-0.25247275829315186,0.00017367361579090357,0.008035295642912388,26.42,0.08,0.12,0.9500000000000001,0.02,0.0,0.1,0.0
5.907377199997427,0,0,0,0,1,64,8628268,3.188293218612671,0.6775080561637878,1.4552364349365234,-1.1409436464309692,-0.21956881880760193,-0.0009049736545421183,-0.0063727544620633125,26.42,0.01,0.0,1.17,0.0,0.0,0.18,0.0
5.93830949999392,0,0,0,0,1,64,8628299,3.1971073150634766,0.64222651720047,1.4552364349365234,-1.1532255411148071,-0.15346994996070862,0.007751321420073509,-0.027178121730685234,26.42,0.0,0.0,1.22,0.0,0.0,0.21,0.0
5.969786700006807,0,0,0,0,1,64,8628330,3.2020251750946045,0.6207507252693176,1.452679991722107,-1.0377202033996582,-0.12314176559448242,0.005119596607983112,-0.030977634713053703,26.42,0.06,0.0,1.21,0.03,0.07,0.12,0.0
6.0013497000036296,0,0,0,0,1,64,8628362,3.2055704593658447,0.6174271702766418,1.4370845556259155,-0.7868086695671082,-0.2119022160768509,0.004350568633526564,-0.005349114537239075,26.42,0.09,0.07,0.91,0.0,0.0,0.0,0.0
6.026564900006633,0,0,0,0,1,64,8628387,3.2148098945617676,0.6202395558357239,1.4194434881210327,-0.5771647691726685,-0.3231840431690216,-0.005837824195623398,-0.006324349902570248,26.400000000000002,0.0,0.03,0.89,0.0,0.0,0.0,0.0
6.062743999995291,0,0,0,0,1,64,8628423,3.2376577854156494,0.6406925320625305,1.3877414464950562,-0.23487962782382965,-0.4900398254394531,0.0062223984859883785,-0.004758097697049379,26.42,0.0,0.1,1.01,0.03,0.17,0.0,0.0
6.083655800000997,0,0,0,0,1,64,8628444,3.250504970550537,0.6708609461784363,1.3603852987289429,0.06858369708061218,-0.6383724212646484,0.0022803593892604113,-0.003088632132858038,26.42,0.09,0.16,0.89,0.0,0.23,0.0,0.0
6.10894519998692,0,0,0,0,1,64,8628469,3.2624006271362305,0.7273624539375305,1.3161554336547852,0.549015998840332,-0.8840680718421936,-0.002122806617990136,-0.0013131045270711184,26.42,0.2,0.26,1.0,0.0,0.28,0.0,0.0
6.140231900004437,0,0,0,0,1,64,8628501,3.2728753089904785,0.8204239010810852,1.2550519704818726,1.2137693166732788,-1.1839754581451416,-0.0044032251462340355,0.0011091232299804688,26.42,0.0,0.04,1.24,0.0,0.39,0.0,0.0
6.165668400004506,0,0,0,0,1,64,8628526,3.277446985244751,0.8996796607971191,1.2182365655899048,1.6660245656967163,-1.2705469131469727,0.0018549009691923857,0.0016944666858762503,26.400000000000002,0.0,0.05,1.21,0.0,0.3,0.0,0.0
6.201774699991802,0,0,0,0,1,64,8628562,3.277479648590088,1.0165177583694458,1.1875568628311157,2.164212465286255,-1.1528254747390747,-0.004934989847242832,0.0027196069713681936,26.42,0.09,0.07,1.02,0.0,0.0,0.0,0.08
6.222641300002579,0,0,0,0,1,64,8628583,3.2747387886047363,1.085802674293518,1.1750293970108032,2.382960319519043,-1.039706826210022,-0.0007933388114906847,-0.0067554353736341,26.44,0.09,0.02,1.08,0.0,0.0,0.0,0.2
6.248305599990999,0,0,0,0,1,64,8628609,3.2675580978393555,1.1688932180404663,1.158922553062439,2.575838088989258,-0.9292036890983582,-0.0067495135590434074,-0.009793883189558983,26.42,0.0,0.01,1.06,0.0,0.0,0.0,0.25
6.279733100003796,0,0,0,0,1,64,8628640,3.2583277225494385,1.2591423988342285,1.1331005096435547,2.678513526916504,-0.8973363041877747,0.0008939107065089047,-0.0038522330578416586,26.400000000000002,0.0,0.07,0.99,0.0,0.0,0.0,0.21
6.310032000008505,0,0,0,0,1,64,8628670,3.251925468444824,1.3337961435317993,1.0975631475448608,2.6338796615600586,-0.9552640914916992,0.007262428756803274,-0.004796820227056742,26.42,0.06,0.04,0.87,0.0,0.0,0.0,0.07
6.340732199983904,0,0,0,0,1,64,8628701,3.2492127418518066,1.3938770294189453,1.0543562173843384,2.4492146968841553,-1.0724377632141113,0.0005136015824973583,0.0025932821445167065,26.42,0.12,0.1,0.8200000000000001,0.0,0.0,0.0,0.0
6.371084899990819,0,0,0,0,1,64,8628731,3.249756336212158,1.4355502128601074,1.0085922479629517,2.172527313232422,-1.1941649913787842,0.001213758485391736,-0.002697636606171727,26.400000000000002,0.0,0.0,0.87,0.02,0.0,0.0,0.0
6.4025986999913584,0,0,0,0,1,64,8628763,3.250781297683716,1.4639288187026978,0.9633401036262512,1.81184720993042,-1.2649167776107788,0.001950776088051498,-0.005762615706771612,26.42,0.04,0.0,0.93,0.01,0.0,0.0,0.01
6.426736099994741,0,0,0,0,1,64,8628787,3.2500100135803223,1.4744110107421875,0.9339386820793152,1.5139626264572144,-1.2611395120620728,-0.005627254955470562,0.0008700849721208215,26.400000000000002,0.0,0.0,0.9500000000000001,0.0,0.0,0.0,0.13
6.450858399999561,0,0,0,0,1,64,8628811,3.247206687927246,1.4782460927963257,0.9091393351554871,1.2151553630828857,-1.2148497104644775,0.003950043115764856,0.0012371885823085904,26.400000000000002,0.04,0.0,0.99,0.03,0.0,0.0,0.27
6.482055200001923,0,0,0,0,1,64,8628842,3.237940788269043,1.4777346849441528,0.882806122303009,0.8710493445396423,-1.1153228282928467,0.010178768076002598,-0.003667294979095459,26.42,0.0,0.0,0.99,0.04,0.04,0.0,0.52
6.512314899999183,0,0,0,0,1,64,8628873,3.2216429710388184,1.4772233963012695,0.8626086115837097,0.6227714419364929,-0.9885060787200928,0.01481856219470501,0.004879584535956383,26.400000000000002,0.0,0.0,0.92,0.03,0.09,0.0,0.6900000000000001
6.542871199984802,0,0,0,0,1,64,8628903,3.2033331394195557,1.4672523736953735,0.846246063709259,0.37876906991004944,-0.8689220547676086,0.0049437046982347965,-0.004386083222925663,26.42,0.08,0.05,0.85,0.06,0.14,0.0,0.51
6.573797999997623,0,0,0,0,1,64,8628934,3.19296932220459,1.4496116638183594,0.8252817988395691,0.11668919026851654,-0.8027058839797974,0.009557877667248249,0.0016882589552551508,26.400000000000002,0.03,0.03,0.86,0.0,0.15,0.0,0.17
6.604807700001402,0,0,0,0,1,64,8628965,3.19254994392395,1.435294508934021,0.7940909266471863,-0.05105309188365936,-0.8472860455513,3.869662759825587e-05,0.001982098678126931,26.42,0.19,0.0,0.96,0.0,0.11,0.0,0.0
6.635953799996059,0,0,0,0,1,64,8628996,3.1970324516296387,1.4245567321777344,0.7570196986198425,-0.13432933390140533,-0.9445175528526306,0.00764895137399435,-0.0025335922837257385,26.42,0.14,0.0,1.04,0.03,0.11,0.0,0.0
6.666876400006004,0,0,0,0,1,64,8629027,3.2048847675323486,1.4115177392959595,0.7260844111442566,-0.20739875733852386,-0.9710080027580261,3.25632281601429e-05,-0.0018658374901860952,26.42,0.0,0.0,1.0,0.1,0.13,0.0,0.0
6.699074899981497,0,0,0,0,1,64,8629059,3.211778163909912,1.3943885564804077,0.70793217420578,-0.2952314615249634,-0.870891273021698,-0.0032620392739772797,0.005847897846251726,26.42,0.06,0.0,1.1400000000000001,0.0,0.13,0.0,0.0
6.722747899999376,0,0,0,0,1,64,8629083,3.2136130332946777,1.3764920234680176,0.7063983082771301,-0.3850928544998169,-0.6997413039207458,4.347600042819977e-05,0.022842705249786377,26.42,0.0,0.07,1.1300000000000001,0.0,0.0,0.0,0.0
6.761771799996495,0,0,0,0,1,64,8629122,3.2217342853546143,1.3368641138076782,0.7145795822143555,-0.5910584330558777,-0.39835426211357117,0.004469308070838451,0.007477277424186468,26.44,0.0,0.14,0.85,0.0,0.0,0.0,0.0
6.792017100000521,0,0,0,0,1,64,8629152,3.2369766235351562,1.2974920272827148,0.7409127354621887,-0.7753477692604065,-0.07768422365188599,0.006174528039991856,0.0044056689366698265,26.42,0.0,0.32,0.99,0.0,0.0,0.02,0.0
6.822090500005288,0,0,0,0,1,64,8629182,3.253324270248413,1.250449776649475,0.7920455932617188,-0.9855195879936218,0.37881484627723694,-0.0008134208037517965,0.007145217154175043,26.42,0.0,0.3,0.97,0.0,0.0,0.08,0.0
6.853709999995772,0,0,0,0,1,64,8629214,3.2714426517486572,1.204686164855957,0.869511604309082,-1.1256946325302124,0.9475492238998413,0.0014712796546518803,0.0021607480011880398,26.42,0.01,0.14,1.1400000000000001,0.16,0.0,0.03,0.0
6.877896799996961,0,0,0,0,1,64,8629238,3.2805771827697754,1.180653691291809,0.9418643116950989,-1.1119532585144043,1.389268398284912,-0.0039952583611011505,0.0016524111852049828,26.42,0.11,0.0,1.32,0.07,0.0,0.01,0.0
6.915509199985536,0,0,0,0,1,64,8629276,3.280879259109497,1.1635242700576782,1.0704628229141235,-0.9025508165359497,2.0434460639953613,0.007090678904205561,-0.004269408993422985,26.42,0.0,0.07,1.19,0.0,0.21,0.07,0.1
6.946729299990693,0,0,0,0,1,64,8629307,3.272827386856079,1.1553430557250977,1.1773303747177124,-0.7192171216011047,2.438828229904175,0.00895540602505207,-0.00402988214045763,26.400000000000002,0.0,0.07,1.05,0.0,0.34,0.21,0.27
6.978867900004843,0,0,0,0,1,64,8629339,3.261040687561035,1.1377023458480835,1.2905893325805664,-0.6532292366027832,2.7476186752319336,0.006623143330216408,-0.00090647186152637,26.44,0.0,0.1,0.97,0.0,0.31,0.29,0.34
7.002771300001768,0,0,0,0,1,64,8629363,3.2521605491638184,1.1154595613479614,1.3662656545639038,-0.7005629539489746,2.8536150455474854,0.005262427497655153,0.0005218698643147945,26.400000000000002,0.08,0.12,0.92,0.0,0.22,0.28,0.3
7.04142709998996,0,0,0,0,1,64,8629402,3.2410500049591064,1.0650938749313354,1.4652074575424194,-0.8916662335395813,2.754504919052124,0.009965180419385433,-0.0042679994367063046,26.42,0.0,0.08,0.8300000000000001,0.0,0.11,0.3,0.18
7.071650900004897,0,0,0,0,1,64,8629432,3.2362709045410156,1.0170291662216187,1.5199193954467773,-1.0768530368804932,2.5178756713867188,0.002975999843329191,-0.005799413658678532,26.42,0.06,0.03,0.86,0.0,0.05,0.33,0.05
7.10204589998466,0,0,0,0,1,64,8629462,3.234221935272217,0.9674304127693176,1.553155541419983,-1.236955165863037,2.1510465145111084,-0.009304226376116276,-0.0045113214291632175,26.42,0.01,0.03,0.87,0.0,0.07,0.38,0.0
7.132479899999453,0,0,0,0,1,64,8629493,3.2343945503234863,0.9160420298576355,1.5661944150924683,-1.3550629615783691,1.680967926979065,0.00030504068126901984,-0.0006418749690055847,26.42,0.0,0.0,0.9400000000000001,0.0,0.13,0.41000000000000003,0.0
7.1636625999817625,0,0,0,0,1,64,8629524,3.2335169315338135,0.8669546246528625,1.564404845237732,-1.4213632345199585,1.1972397565841675,0.0011503577698022127,0.006198096089065075,26.400000000000002,0.0,0.0,0.98,0.0,0.15,0.43,0.18
7.194937099993695,0,0,0,0,1,64,8629555,3.226388692855835,0.8263041377067566,1.5582689046859741,-1.4001692533493042,0.8109890222549438,-0.00016864720964804292,-0.001662014750763774,26.400000000000002,0.09,0.0,0.9,0.0,0.08,0.4,0.39
7.22524619998876,0,0,0,0,1,64,8629586,3.2144644260406494,0.7971585392951965,1.5439516305923462,-1.277908205986023,0.46494317054748535,0.007041819393634796,0.006955686490982771,26.400000000000002,0.08,0.0,0.8,0.0,0.04,0.36,0.49
7.2561566999938805,0,0,0,0,1,64,8629617,3.2014858722686768,0.7772167325019836,1.5206862688064575,-1.1036570072174072,0.1345951110124588,0.010996360331773758,-0.0037960123736411333,26.42,0.0,0.0,0.88,0.0,0.0,0.27,0.46
7.287603999982821,0,0,0,0,1,64,8629648,3.190182685852051,0.7577864527702332,1.495631217956543,-0.9628795981407166,-0.12971273064613342,0.0031429717782884836,0.0014439296210184693,26.44,0.0,0.03,0.96,0.0,0.0,0.15,0.31
7.318390400003409,0,0,0,0,1,64,8629679,3.1841118335723877,0.7286407351493835,1.480291485786438,-0.9417710900306702,-0.2441912442445755,0.005315754096955061,-0.002581161679700017,26.42,0.11,0.03,0.96,0.05,0.0,0.09,0.11
7.35033739998471,0,0,0,0,1,64,8629711,3.184413194656372,0.6895243525505066,1.4767122268676758,-1.0164848566055298,-0.2147168219089508,-0.002315238583832979,0.02007778361439705,26.42,0.22,0.0,1.01,0.0,0.0,0.08,0.0
7.3749601999879815,0,0,0,0,1,64,8629735,3.1895430088043213,0.6583334803581238,1.4767122268676758,-1.080125331878662,-0.16205161809921265,0.0007102147210389376,0.032045818865299225,26.44,0.14,0.0,1.1,0.0,0.05,0.15,0.0
7.4135510000051,0,0,0,0,1,64,8629774,3.199716091156006,0.6118027567863464,1.4751782417297363,-1.1256000995635986,-0.11559224128723145,0.0026238467544317245,0.04727395251393318,26.42,0.0,0.0,1.33,0.0,0.08,0.33,0.0
7.443864700006088,0,0,0,0,1,64,8629804,3.201150894165039,0.5887928009033203,1.4731329679489136,-1.045269250869751,-0.09571769833564758,0.005733547732234001,0.04669236019253731,26.42,0.09,0.0,1.25,0.03,0.16,0.29,0.1
7.475555399985751,0,0,0,0,1,64,8629836,3.2009329795837402,0.587003231048584,1.4537025690078735,-0.7800578474998474,-0.22076515853405,-0.0019796628039330244,0.013585424050688744,26.42,0.0,0.1,0.89,0.0,0.04,0.18,0.0
7.50008890000754,0,0,0,0,1,64,8629860,3.2076497077941895,0.5951845049858093,1.429669976234436,-0.5350969433784485,-0.3896651268005371,-0.0012907616328448057,0.00486831646412611,26.44,0.0,0.14,0.84,0.08,0.04,0.04,0.0
7.539689199998975,0,0,0,0,1,64,8629900,3.2361068725585938,0.6276537775993347,1.3813499212265015,-0.08894844353199005,-0.6617974042892456,-0.001091725891456008,0.000760190247092396,26.44,0.01,0.08,0.98,0.16,0.26,0.0,0.0
7.5704403999843635,0,0,0,0,1,64,8629931,3.2578656673431396,0.6856892704963684,1.3307281732559204,0.42827126383781433,-0.9186103343963623,-0.004380334168672562,0.003104634815827012,26.42,0.06,0.19,0.9400000000000001,0.0,0.27,0.0,0.0
7.601636899984442,0,0,0,0,1,64,8629962,3.2734577655792236,0.7695468068122864,1.2716699838638306,1.0426900386810303,-1.190061092376709,-0.00036670942790806293,-0.001413977355696261,26.400000000000002,0.0,0.17,1.16,0.0,0.25,0.0,0.0
7.6324967999826185,0,0,0,0,1,64,8629993,3.2807836532592773,0.8661877512931824,1.2230939865112305,1.6117459535598755,-1.3126237392425537,-0.005487049929797649,0.0033419914543628693,26.44,0.14,0.07,1.26,0.0,0.13,0.0,0.0
7.664630999992369,0,0,0,0,1,64,8630025,3.2822234630584717,0.9717766642570496,1.1916475296020508,2.0914015769958496,-1.2350506782531738,-0.012490480206906796,0.004768425598740578,26.42,0.0,0.09,1.1,0.0,0.0,0.0,0.02
7.689233399985824,0,0,0,0,1,64,8630050,3.2790539264678955,1.0579352378845215,1.1742624044418335,2.3993313312530518,-1.1108859777450562,-0.005253119859844446,-0.003748588263988495,26.42,0.17,0.03,1.09,0.02,0.0,0.0,0.16
7.7268911999999546,0,0,0,0,1,64,8630087,3.2691519260406494,1.1816763877868652,1.14767324924469,2.709125518798828,-0.9723926782608032,0.005629779305309057,-0.0002499639813322574,26.42,0.0,0.07,1.02,0.0,0.0,0.0,0.26
7.7575766000081785,0,0,0,0,1,64,8630118,3.2600347995758057,1.2762718200683594,1.116737961769104,2.808373212814331,-0.9661960601806641,0.001118567306548357,-0.004377277102321386,26.42,0.03,0.09,0.92,0.0,0.0,0.0,0.23
7.788392799993744,0,0,0,0,1,64,8630149,3.2532894611358643,1.3534822463989258,1.0783885717391968,2.731588125228882,-1.0341922044754028,0.0024467934854328632,0.0008338742190971971,26.42,0.03,0.0,0.85,0.02,0.0,0.0,0.11
7.818806499999482,0,0,0,0,1,64,8630179,3.2491395473480225,1.4094724655151367,1.035436987876892,2.508540153503418,-1.136647343635559,0.001642078859731555,0.005461054388433695,26.400000000000002,0.0,0.06,0.85,0.04,0.0,0.0,0.06
7.850801399996271,0,0,0,0,1,64,8630211,3.2466673851013184,1.4498673677444458,0.9868612289428711,2.165701150894165,-1.2468305826187134,-0.00449400395154953,0.004855622071772814,26.42,0.17,0.03,0.89,0.03,0.0,0.0,0.06
7.875009599985788,0,0,0,0,1,64,8630235,3.244243860244751,1.4669967889785767,0.9520909190177917,1.8519693613052368,-1.2953039407730103,-0.005063599906861782,0.005698713939636946,26.400000000000002,0.0,0.0,0.93,0.0,0.0,0.0,0.11
7.912475699995412,0,0,0,0,1,64,8630273,3.2396633625030518,1.4723657369613647,0.9058157801628113,1.2940534353256226,-1.2808191776275635,-0.011607768945395947,0.003570200176909566,26.42,0.06,0.0,0.96,0.0,0.0,0.0,0.26
7.942294100008439,0,0,0,0,1,64,8630303,3.230806589126587,1.468786597251892,0.878459632396698,0.9067877531051636,-1.18738853931427,0.005959757138043642,0.0035296897403895855,26.42,0.0,0.0,0.9400000000000001,0.03,0.09,0.0,0.54
7.973579799989238,0,0,0,0,1,64,8630334,3.2143070697784424,1.4593271017074585,0.8569841384887695,0.577775776386261,-1.0495340824127197,0.010418668389320374,-0.0031982790678739548,26.42,0.0,0.0,0.89,0.04,0.18,0.0,0.63
8.003846999985399,0,0,0,0,1,64,8630364,3.1978795528411865,1.4432201385498047,0.8383207321166992,0.2800824046134949,-0.9291273951530457,-0.0038084066472947598,0.0005985547904856503,26.400000000000002,0.12,0.0,0.85,0.01,0.2,0.01,0.52
8.034390499989968,0,0,0,0,1,64,8630395,3.1859323978424072,1.4235340356826782,0.8168449401855469,0.02332060970366001,-0.8568891286849976,0.004978727549314499,0.011405989527702332,26.42,0.11,0.06,0.8200000000000001,0.0,0.18,0.0,0.25
8.065470000001369,0,0,0,0,1,64,8630426,3.1826581954956055,1.4087055921554565,0.790511429309845,-0.1250697374343872,-0.8499179482460022,0.00017595014651305974,0.0070254066959023476,26.42,0.0,0.07,0.96,0.0,0.1,0.0,0.02
8.09662169998046,0,0,0,0,1,64,8630457,3.1865556240081787,1.4023140668869019,0.7580423355102539,-0.15342013537883759,-0.8978367447853088,-0.0030837925150990486,0.00957782007753849,26.42,0.12,0.0,1.07,0.0,0.02,0.0,0.0
8.127579699998023,0,0,0,0,1,64,8630488,3.1941094398498535,1.4010356664657593,0.7255728840827942,-0.12100982666015625,-0.9425674676895142,0.0015351725742220879,-0.001969247590750456,26.400000000000002,0.0,0.0,1.09,0.1,0.03,0.0,0.0
8.158766199980164,0,0,0,0,1,64,8630519,3.200751543045044,1.3969449996948242,0.7030747532844543,-0.11389203369617462,-0.8963653445243835,0.012090659700334072,-0.0027504791505634785,26.44,0.01,0.0,1.27,0.0,0.03,0.0,0.0
8.19006019999506,0,0,0,0,1,64,8630550,3.202617883682251,1.3818608522415161,0.6959161758422852,-0.20307430624961853,-0.7290125489234924,-0.0039319833740592,-0.008620704524219036,26.42,0.14,0.03,1.1400000000000001,0.0,0.0,0.0,0.0
8.220141400001012,0,0,0,0,1,64,8630581,3.207592725753784,1.3598737716674805,0.6997509002685547,-0.343021959066391,-0.4923423230648041,-0.00083780731074512,0.015497625805437565,26.42,0.0,0.09,0.85,0.0,0.0,0.02,0.0
8.252265399991302,0,0,0,0,1,64,8630613,3.2223734855651855,1.3394207954406738,0.7150907516479492,-0.4305030405521393,-0.2305399775505066,-0.002244609175249934,0.004194892942905426,26.42,0.0,0.17,1.11,0.0,0.0,0.31,0.0
8.277647999988403,0,0,0,0,1,64,8630638,3.2324302196502686,1.3179450035095215,0.7506281733512878,-0.5167896151542664,0.11460727453231812,-0.005874278023838997,0.001889057457447052,26.400000000000002,0.08,0.17,1.08,0.03,0.0,0.58,0.0
8.312565700005507,0,0,0,0,1,64,8630673,3.245302677154541,1.2760162353515625,0.8395989537239075,-0.7206772565841675,0.8300743103027344,0.00452976580709219,-0.004025185015052557,26.400000000000002,0.11,0.11,1.17,0.28,0.03,0.42,0.0
8.334281499992358,0,0,0,0,1,64,8630695,3.2489421367645264,1.2494271993637085,0.9093949198722839,-0.8260433077812195,1.3111321926116943,-0.001326502999290824,0.0013911890564486384,26.42,0.0,0.1,1.23,0.2,0.08,0.16,0.0
8.360009600000922,0,0,0,0,1,64,8630720,3.246912717819214,1.22539484500885,0.9975989460945129,-0.8696534633636475,1.8189749717712402,0.0015080927405506372,0.0007978098001331091,26.42,0.0,0.14,1.2,0.0,0.02,0.0,0.08
8.39103949998389,0,0,0,0,1,64,8630751,3.2399485111236572,1.2013624906539917,1.1070228815078735,-0.8442192077636719,2.301309823989868,0.0026495386846363544,0.0024650231935083866,26.400000000000002,0.0,0.11,1.06,0.0,0.04,0.0,0.17
8.421257199981483,0,0,0,0,1,64,8630782,3.232644557952881,1.174006462097168,1.2151683568954468,-0.8441982269287109,2.6268310546875,0.0010169753804802895,-0.000650369911454618,26.42,0.03,0.12,0.92,0.0,0.19,0.08,0.14
8.452057599992258,0,0,0,0,1,64,8630812,3.2260851860046387,1.13872492313385,1.3184562921524048,-0.9226179122924805,2.8491129875183105,0.0009425723692402244,-0.0021591598633676767,26.42,0.01,0.13,0.85,0.0,0.28,0.18,0.11
8.482875099987723,0,0,0,0,1,64,8630843,3.2218058109283447,1.0950064659118652,1.4064048528671265,-1.0526657104492188,2.863797903060913,-0.003327310550957918,-0.0005785117391496897,26.44,0.01,0.09,0.86,0.0,0.26,0.24,0.02
8.51374609998311,0,0,0,0,1,64,8630874,3.220431089401245,1.0471973419189453,1.4756895303726196,-1.1857185363769531,2.702056646347046,-0.0032518927473574877,9.657445480115712e-05,26.400000000000002,0.0,0.07,0.89,0.0,0.23,0.32,0.0
8.544619099993724,0,0,0,0,1,64,8630905,3.2209198474884033,0.9973430633544922,1.5255438089370728,-1.3043218851089478,2.407926559448242,0.003545115701854229,-0.006087502930313349,26.42,0.09,0.05,0.89,0.0,0.17,0.37,0.0
8.576181299984455,0,0,0,0,1,64,8630937,3.223078966140747,0.948255717754364,1.5539226531982422,-1.3749990463256836,1.9884072542190552,0.0006672870367765427,0.0021473574452102184,26.42,0.0,0.02,0.89,0.0,0.12,0.36,0.0
8.601437100005569,0,0,0,0,1,64,8630962,3.2253754138946533,0.9147637486457825,1.5592914819717407,-1.3713343143463135,1.5908598899841309,-0.0024067575577646494,-0.01791565492749214,26.44,0.01,0.0,0.9500000000000001,0.0,0.1,0.29,0.0
8.63948650000384,0,0,0,0,1,64,8631000,3.223388671875,0.8738576769828796,1.5511102676391602,-1.2787922620773315,0.9990482926368713,0.002307809190824628,-0.010568037629127502,26.42,0.0,0.0,1.0,0.0,0.03,0.13,0.34
8.670331100001931,0,0,0,0,1,64,8631031,3.2117061614990234,0.8508478999137878,1.532191276550293,-1.1341136693954468,0.5615842342376709,0.0015997403534129262,-0.01130842138081789,26.42,0.0,0.0,0.96,0.0,0.0,0.02,0.61
8.701506399986101,0,0,0,0,1,64,8631062,3.1933681964874268,0.8319287300109863,1.4999775886535645,-0.9840940833091736,0.1269461214542389,0.005484568886458874,-0.0030736092012375593,26.42,0.0,0.03,0.8200000000000001,0.0,0.0,0.0,0.64
8.732260899996618,0,0,0,0,1,64,8631093,3.1765053272247314,0.8066180348396301,1.4657186269760132,-0.9222992062568665,-0.22592423856258392,-0.0001738591236062348,-0.000666289939545095,26.400000000000002,0.0,0.14,0.8200000000000001,0.0,0.0,0.0,0.4
8.764181699982146,0,0,0,0,1,64,8631125,3.169677257537842,0.7644336819648743,1.4442428350448608,-1.0166397094726562,-0.368806928396225,-0.0022288034670054913,-0.015325723215937614,26.44,0.0,0.05,0.8300000000000001,0.0,0.0,0.0,0.04
8.78946519998135,0,0,0,0,1,64,8631150,3.170992612838745,0.7212265133857727,1.4419418573379517,-1.1736385822296143,-0.31496480107307434,-0.008721096441149712,0.014118291437625885,26.42,0.01,0.1,0.91,0.0,0.0,0.0,0.0
8.826212199986912,0,0,0,0,1,64,8631187,3.1814703941345215,0.6588446497917175,1.440919280052185,-1.3515779972076416,-0.21358610689640045,0.008905931375920773,0.03258329629898071,26.42,0.0,0.0,1.12,0.0,0.0,0.11,0.0
8.857250100001693,0,0,0,0,1,64,8631218,3.193443536758423,0.6238186955451965,1.4406636953353882,-1.3116631507873535,-0.1508312225341797,0.007560094818472862,0.04063279926776886,26.42,0.09,0.0,1.26,0.0,0.05,0.28,0.0
8.886966599995503,0,0,0,0,1,64,8631247,3.199014186859131,0.6115469932556152,1.4329938888549805,-1.098122239112854,-0.1627778708934784,-0.0034430960658937693,0.013303454965353012,26.42,0.01,0.0,1.2,0.0,0.13,0.31,0.0
8.9181333000015,0,0,0,0,1,64,8631279,3.2061574459075928,0.614870548248291,1.410495400428772,-0.757904052734375,-0.3058253526687622,-0.0014719993341714144,0.010014473460614681,26.42,0.11,0.03,0.88,0.0,0.03,0.19,0.0
8.943410299980314,0,0,0,0,1,64,8631304,3.221872091293335,0.6217734217643738,1.3872299194335938,-0.521690845489502,-0.4478192925453186,-0.0030713588930666447,0.003870787099003792,26.42,0.01,0.1,0.9,0.14,0.05,0.0,0.0
8.980204699997557,0,0,0,0,1,64,8631341,3.2549996376037598,0.6562881469726562,1.3381427526474,-0.08088692277669907,-0.7121739983558655,-2.598389983177185e-07,-0.00013447029050439596,26.42,0.0,0.14,0.92,0.07,0.22,0.0,0.0
9.005553900002269,0,0,0,0,1,64,8631366,3.2769432067871094,0.7061424255371094,1.2890552282333374,0.3721051514148712,-0.9828853607177734,0.00010751013178378344,0.004303866531699896,26.44,0.16,0.14,0.9400000000000001,0.0,0.22,0.0,0.0
9.042542399984086,0,0,0,0,1,64,8631403,3.300297975540161,0.8084077835083008,1.2131229639053345,1.1265891790390015,-1.3420213460922241,-0.00274768378585577,0.004487315192818642,26.42,0.12,0.14,1.24,0.0,0.16,0.0,0.0
9.067354200000409,0,0,0,0,1,64,8631428,3.3087544441223145,0.8848511576652527,1.175540566444397,1.5710197687149048,-1.401775598526001,-0.0014650160446763039,0.0021733175963163376,26.400000000000002,0.09,0.01,1.29,0.0,0.09,0.0,0.0
9.104929799999809,0,0,0,0,1,64,8631465,3.3111696243286133,1.0057798624038696,1.1463950872421265,2.110755205154419,-1.2175732851028442,-0.0006391128990799189,0.00378603208810091,26.42,0.09,0.09,1.04,0.01,0.0,0.0,0.07
9.129458999988856,0,0,0,0,1,64,8631490,3.3066563606262207,1.094239592552185,1.133612036705017,2.4342024326324463,-1.0512696504592896,-0.00413048081099987,6.430984649341553e-05,26.44,0.01,0.01,1.06,0.03,0.0,0.0,0.29
9.166711500001838,0,0,0,0,1,64,8631527,3.291475296020508,1.2246278524398804,1.1075340509414673,2.785527229309082,-0.9199643731117249,-0.0022004866041243076,-0.004821544513106346,26.400000000000002,0.03,0.03,1.01,0.02,0.0,0.0,0.41000000000000003
9.191484499984654,0,0,0,0,1,64,8631552,3.2807397842407227,1.3031164407730103,1.0822235345840454,2.8805501461029053,-0.9327241778373718,-0.002448453800752759,-0.008358321152627468,26.42,0.14,0.1,0.88,0.0,0.0,0.0,0.37
9.229421099997126,0,0,0,0,1,64,8631590,3.2687015533447266,1.3954111337661743,1.031346321105957,2.7467947006225586,-1.0560182332992554,-0.0008872788166627288,-0.0011408869177103043,26.42,0.16,0.11,0.77,0.0,0.0,0.0,0.15
9.260489599982975,0,0,0,0,1,64,8631621,3.2650821208953857,1.4421974420547485,0.9827706217765808,2.4237797260284424,-1.1968692541122437,-0.0016186635475605726,-0.0006842853035777807,26.42,0.03,0.06,0.85,0.0,0.0,0.0,0.0
9.29125280000153,0,0,0,0,1,64,8631652,3.264643430709839,1.4669967889785767,0.9336830973625183,1.981007695198059,-1.3065438270568848,0.0004326850757934153,-0.005519629456102848,26.44,0.03,0.03,0.92,0.0,0.0,0.0,0.0
9.322415999980876,0,0,0,0,1,64,8631683,3.26505184173584,1.4741554260253906,0.8914985656738281,1.4982985258102417,-1.3312952518463135,-0.011761866509914398,-0.0010507485130801797,26.400000000000002,0.0,0.0,0.96,0.0,0.0,0.0,0.05
9.353767199994763,0,0,0,0,1,64,8631714,3.2612063884735107,1.4733883142471313,0.8610747456550598,1.0714877843856812,-1.2445248365402222,-0.023095780983567238,0.0016654201317578554,26.42,0.0,0.0,0.96,0.0,0.0,0.0,0.37
9.384890499990433,0,0,0,0,1,64,8631745,3.2483720779418945,1.4733883142471313,0.841644287109375,0.7681230306625366,-1.0791802406311035,-0.024443363770842552,-0.009814376942813396,26.42,0.12,0.0,0.97,0.03,0.1,0.0,0.65
9.416845400002785,0,0,0,0,1,64,8631777,3.227752685546875,1.466229796409607,0.8316733241081238,0.4966198205947876,-0.8658753633499146,-0.014793427661061287,-0.007864747196435928,26.42,0.11,0.0,0.92,0.03,0.24,0.02,0.71
9.441657299990766,0,0,0,0,1,64,8631802,3.2120437622070312,1.451912760734558,0.8245146870613098,0.25819969177246094,-0.7213535308837891,-0.005468965042382479,-0.0018557620933279395,26.42,0.08,0.0,0.88,0.0,0.24,0.0,0.59
9.478560399991693,0,0,0,0,1,64,8631839,3.1958799362182617,1.4312039613723755,0.8009936213493347,-0.013416418805718422,-0.6774740815162659,0.0001380163012072444,0.001156626851297915,26.42,0.09,0.06,0.8200000000000001,0.0,0.16,0.0,0.28
9.503683399991132,0,0,0,0,1,64,8631864,3.191549777984619,1.4227670431137085,0.7738933563232422,-0.09560248255729675,-0.7600433230400085,-0.001943933661095798,0.009615335613489151,26.42,0.0,0.06,0.91,0.0,0.08,0.0,0.07
9.540399599994998,0,0,0,0,1,64,8631901,3.1951863765716553,1.415864109992981,0.7286408543586731,-0.12375737726688385,-0.9136738181114197,0.0010116545017808676,0.005904167424887419,26.400000000000002,0.08,0.0,1.04,0.03,0.02,0.0,0.0
9.56568219998735,0,0,0,0,1,64,8631926,3.201887607574463,1.410239577293396,0.7040974497795105,-0.14245453476905823,-0.9386518597602844,-0.00046380673302337527,0.004366606008261442,26.46,0.12,0.0,1.1,0.12,0.06,0.0,0.0
9.602583600004436,0,0,0,0,1,64,8631963,3.2072627544403076,1.3974565267562866,0.6838998794555664,-0.20113441348075867,-0.829236626625061,-0.0013832295080646873,-0.003883587894961238,26.400000000000002,0.11,0.01,1.29,0.0,0.01,0.0,0.06
9.627608199982205,0,0,0,0,1,64,8631988,3.207324266433716,1.3839062452316284,0.6808319091796875,-0.2761137783527374,-0.6747788190841675,0.002412196947261691,0.01950092241168022,26.400000000000002,0.09,0.04,1.0,0.0,0.02,0.0,0.0
9.663769200007664,0,0,0,0,1,64,8632024,3.2163197994232178,1.364220142364502,0.6821101307868958,-0.3632770776748657,-0.4477443993091583,0.002112107817083597,0.029374530538916588,26.400000000000002,0.0,0.07,0.99,0.0,0.12,0.0,0.0
9.68519649998052,0,0,0,0,1,64,8632046,3.2253119945526123,1.353226661682129,0.6869678497314453,-0.39059707522392273,-0.3202849328517914,0.0018961757887154818,0.01635126769542694,26.44,0.01,0.23,0.9500000000000001,0.0,0.01,0.04,0.0
9.725776699982816,0,0,0,0,1,64,8632086,3.246506929397583,1.3133430480957031,0.7406571507453918,-0.5764489769935608,0.20441219210624695,0.001966206356883049,0.007197969127446413,26.42,0.12,0.14,0.91,0.0,0.0,0.22,0.0
9.756738800002495,0,0,0,0,1,64,8632117,3.2617874145507812,1.264767050743103,0.8296279907226562,-0.8420470356941223,0.9152536988258362,-0.006861147936433554,0.0031503743957728148,26.44,0.17,0.06,1.28,0.0,0.0,0.27,0.0
9.7880826999899,0,0,0,0,1,64,8632148,3.2657949924468994,1.2213042974472046,0.940074622631073,-1.0149953365325928,1.6493209600448608,0.00043213789467699826,0.0030538022983819246,26.42,0.04,0.08,1.28,0.0,0.0,0.24,0.0
9.819467199995415,0,0,0,0,1,64,8632180,3.259464740753174,1.1913915872573853,1.0602363348007202,-1.006473422050476,2.263730764389038,-0.007008422631770372,0.0028687468729913235,26.44,0.09,0.11,1.17,0.0,0.0,0.29,0.18
9.850218200008385,0,0,0,0,1,64,8632211,3.2497332096099854,1.1701716184616089,1.1701717376708984,-0.9148531556129456,2.622244119644165,-0.0015775507781654596,-0.00477770296856761,26.42,0.0,0.18,0.9400000000000001,0.0,0.22,0.4,0.22
9.881049699994037,0,0,0,0,1,64,8632241,3.2415966987609863,1.1410259008407593,1.2752494812011719,-0.9107339978218079,2.8536126613616943,0.007458328269422054,-0.0019396741408854723,26.400000000000002,0.2,0.14,0.9400000000000001,0.0,0.36,0.4,0.14
9.911851099983323,0,0,0,0,1,64,8632272,3.2363975048065186,1.0990971326828003,1.3713788986206055,-1.019574761390686,2.936880111694336,-0.0010671529453247786,-0.007551311980932951,26.42,0.0,0.15,0.84,0.0,0.3,0.31,0.05
9.942261099989992,0,0,0,0,1,64,8632303,3.2345683574676514,1.0505210161209106,1.449867606163025,-1.167766809463501,2.8295280933380127,-0.0017849011346697807,0.0015801904955878854,26.42,0.06,0.07,0.85,0.0,0.22,0.31,0.0
9.973735299980035,0,0,0,0,1,64,8632334,3.2332894802093506,0.9983657002449036,1.5102041959762573,-1.3100634813308716,2.592757225036621,-0.0069703166373074055,0.0009754004422575235,26.42,0.12,0.07,0.87,0.0,0.15,0.33,0.0
10.005017699993914,0,0,0,0,1,64,8632365,3.2333364486694336,0.9459546208381653,1.550087571144104,-1.4153227806091309,2.2433462142944336,-0.0009862742153927684,-0.002235381631180644,26.42,0.11,0.03,0.89,0.0,0.15,0.32,0.0
10.035715899983188,0,0,0,0,1,64,8632396,3.233656406402588,0.8978899121284485,1.5667057037353516,-1.4546294212341309,1.7853147983551025,0.003717921208590269,-0.0032435294706374407,26.42,0.08,0.0,0.96,0.0,0.11,0.25,0.0
10.067287099984242,0,0,0,0,1,64,8632428,3.2334017753601074,0.8582620620727539,1.5661944150924683,-1.4040851593017578,1.2740927934646606,0.004010876175016165,-0.019346389919519424,26.42,0.01,0.0,1.0,0.0,0.01,0.18,0.21
10.091771999985212,0,0,0,0,1,64,8632452,3.227801561355591,0.8367864489555359,1.5595470666885376,-1.3000338077545166,0.9330050349235535,0.0034582221414893866,-0.001842351397499442,26.42,0.06,0.0,0.96,0.0,0.0,0.14,0.39
10.129737899987958,0,0,0,0,1,64,8632490,3.2126684188842773,0.8137766718864441,1.5339808464050293,-1.0715758800506592,0.41365817189216614,0.005889833904802799,-0.011533373966813087,26.42,0.03,0.0,0.93,0.0,0.0,0.07,0.53
10.159749899990857,0,0,0,0,1,64,8632520,3.1986358165740967,0.7958803176879883,1.5048351287841797,-0.933650016784668,0.04090781882405281,-0.0011613541282713413,-0.005564837716519833,26.44,0.12,0.07,0.8300000000000001,0.0,0.0,0.06,0.43
10.1906517999887,0,0,0,0,1,64,8632551,3.189034938812256,0.76775723695755,1.4769678115844727,-0.9105242490768433,-0.23155273497104645,0.001913572195917368,0.00041033350862562656,26.42,0.0,0.0,0.85,0.0,0.0,0.04,0.14
10.221541200007778,0,0,0,0,1,64,8632582,3.188257932662964,0.7281293869018555,1.460605263710022,-1.0023452043533325,-0.3230386972427368,0.0029848774429410696,0.0044483221136033535,26.44,0.08,0.05,0.9,0.0,0.0,0.09,0.0
10.252693199989153,0,0,0,0,1,64,8632613,3.1965131759643555,0.6849223971366882,1.4585599899291992,-1.1192059516906738,-0.2571640908718109,-0.0001646444434300065,0.027598604559898376,26.42,0.19,0.0,1.04,0.0,0.0,0.16,0.0
10.28399329999229,0,0,0,0,1,64,8632644,3.207571268081665,0.6516860127449036,1.457537293434143,-1.1218788623809814,-0.1885211020708084,-0.0028918597381561995,0.02951180748641491,26.400000000000002,0.04,0.0,1.1400000000000001,0.0,0.0,0.3,0.0
10.314443999988725,0,0,0,0,1,64,8632675,3.2112176418304443,0.6330226063728333,1.4570261240005493,-0.9915252923965454,-0.13501539826393127,0.0018857927061617374,0.030628323554992676,26.42,0.0,0.0,1.27,0.0,0.06,0.35000000000000003,0.09
10.345876399980625,0,0,0,0,1,64,8632706,3.207681655883789,0.6291877627372742,1.4531911611557007,-0.7596304416656494,-0.1244112178683281,-0.002552047837525606,0.009458251297473907,26.42,0.03,0.1,1.02,0.0,0.16,0.26,0.05
10.376390099991113,0,0,0,0,1,64,8632737,3.213456392288208,0.6291877627372742,1.4478222131729126,-0.5432333946228027,-0.14201557636260986,0.004341392777860165,0.015102140605449677,26.42,0.0,0.0,1.06,0.03,0.11,0.2,0.0
10.407787600008305,0,0,0,0,1,64,8632768,3.2230465412139893,0.6319999694824219,1.442453384399414,-0.3727168142795563,-0.14197129011154175,-0.0031031006947159767,-0.008017581887543201,26.44,0.01,0.07,1.07,0.17,0.3,0.02,0.0
10.43922709999606,0,0,0,0,1,64,8632800,3.231898784637451,0.659611701965332,1.4181652069091797,-0.054702386260032654,-0.2931979298591614,-0.002335835713893175,-0.001810767687857151,26.42,0.08,0.27,0.99,0.05,0.32,0.0,0.0
10.46430049999617,0,0,0,0,1,64,8632825,3.2389955520629883,0.7081877589225769,1.381093978881836,0.3738742470741272,-0.5509181618690491,-0.0025379261933267117,0.0006784852594137192,26.400000000000002,0.0,0.28,0.91,0.03,0.23,0.0,0.0
10.502204899996286,0,0,0,0,1,64,8632863,3.252530574798584,0.8104531168937683,1.3176895380020142,1.129209280014038,-0.9297612309455872,-0.007645162288099527,0.0012758552329614758,26.42,0.01,0.07,1.1,0.0,0.18,0.0,0.0
10.533786699990742,0,0,0,0,1,64,8632894,3.2598445415496826,0.9004465937614441,1.2772947549819946,1.6283303499221802,-1.0494555234909058,-0.006825366523116827,-0.0010142256505787373,26.42,0.0,0.1,1.09,0.0,0.06,0.0,0.0
10.564486399991438,0,0,0,0,1,64,8632925,3.2617347240448,0.9904401898384094,1.2476377487182617,1.979594111442566,-1.026541829109192,-0.008384907618165016,0.0048881955444812775,26.44,0.0,0.1,1.17,0.0,0.0,0.0,0.0
10.594871899986174,0,0,0,0,1,64,8632955,3.259384870529175,1.080177903175354,1.2187477350234985,2.247748613357544,-0.9950702786445618,-0.005909080617129803,0.003547404892742634,26.42,0.08,0.1,1.09,0.0,0.0,0.0,0.05
10.6258229999803,0,0,0,0,1,64,8632986,3.254315137863159,1.1755404472351074,1.1786085367202759,2.471421480178833,-1.0627031326293945,-0.0038750059902668,0.0029936411883682013,26.42,0.06,0.14,0.97,0.0,0.0,0.0,0.09
10.656770900008269,0,0,0,0,1,64,8633017,3.250303268432617,1.2627216577529907,1.1328449249267578,2.573586940765381,-1.1777247190475464,-0.008907458744943142,-0.002859904197975993,26.42,0.12,0.07,0.89,0.0,0.0,0.0,0.02
10.687797199992929,0,0,0,0,1,64,8633048,3.2491300106048584,1.3325179815292358,1.0865697860717773,2.4965240955352783,-1.2648825645446777,-6.667646812275052e-05,-0.001330964034423232,26.44,0.0,0.07,0.92,0.02,0.0,0.0,0.0
10.71918960000039,0,0,0,0,1,64,8633080,3.2498903274536133,1.3874855041503906,1.0374822616577148,2.2824254035949707,-1.3361566066741943,-0.0049161361530423164,0.007688264362514019,26.400000000000002,0.03,0.0,0.9,0.03,0.0,0.0,0.0
10.744029099994805,0,0,0,0,1,64,8633104,3.2496912479400635,1.4196990728378296,0.9991328120231628,2.075639486312866,-1.3930939435958862,-0.004058231599628925,0.00666340347379446,26.42,0.09,0.0,0.92,0.0,0.0,0.0,0.02
10.781470799993258,0,0,0,0,1,64,8633142,3.2465054988861084,1.454724907875061,0.9395634531974792,1.7007060050964355,-1.4521294832229614,0.00021533132530748844,0.008708566427230835,26.42,0.0,0.0,0.92,0.01,0.0,0.0,0.13
10.812180899985833,0,0,0,0,1,64,8633173,3.241372585296631,1.4657186269760132,0.8996798396110535,1.3398218154907227,-1.4144806861877441,-0.007959971204400063,0.004788496531546116,26.400000000000002,0.0,0.0,0.91,0.01,0.0,0.0,0.22
10.842398100008722,0,0,0,0,1,64,8633203,3.234807252883911,1.464951515197754,0.8707898259162903,0.9674820303916931,-1.297224998474121,-0.013139346614480019,0.00014435217599384487,26.42,0.12,0.0,0.96,0.07,0.06,0.0,0.43
10.872950899996795,0,0,0,0,1,64,8633233,3.220902442932129,1.464695930480957,0.8477802276611328,0.6993525624275208,-1.1549583673477173,-0.02064964361488819,-0.0030652261339128017,26.42,0.0,0.0,0.91,0.08,0.14,0.0,0.67
10.904897800006438,0,0,0,0,1,64,8633265,3.200841188430786,1.4585599899291992,0.827071487903595,0.45552679896354675,-1.0091520547866821,-0.013818066567182541,0.004610100295394659,26.42,0.03,0.05,0.86,0.0,0.22,0.0,0.59
10.929076500004157,0,0,0,0,1,64,8633289,3.188704490661621,1.4460325241088867,0.8130099177360535,0.2431073635816574,-0.911848247051239,-0.01417834684252739,-0.005157720763236284,26.42,0.01,0.08,0.85,0.0,0.22,0.05,0.35000000000000003
10.967010599997593,0,0,0,0,1,64,8633327,3.1826295852661133,1.4248123168945312,0.7859096527099609,-0.02526026964187622,-0.8368830680847168,-0.003536044619977474,0.0007518097991123796,26.44,0.01,0.0,0.96,0.03,0.16,0.02,0.01
10.998184099997161,0,0,0,0,1,64,8633359,3.187674045562744,1.416119933128357,0.7544628977775574,-0.10496331006288528,-0.8740994930267334,0.004225317854434252,0.0018306518904864788,26.42,0.0,0.0,1.1,0.09,0.1,0.0,0.0
11.023058999999193,0,0,0,0,1,64,8633383,3.194685935974121,1.4140745401382446,0.7291523814201355,-0.1038447842001915,-0.9163072109222412,-0.0049037323333323,0.00014408037532120943,26.42,0.0,0.0,1.1,0.14,0.03,0.0,0.0
11.06031139998231,0,0,0,0,1,64,8633421,3.203011989593506,1.4094724655151367,0.7010294795036316,-0.09807879477739334,-0.8705501556396484,-0.0075311558321118355,-0.006877045147120953,26.44,0.2,0.0,1.25,0.07,0.0,0.0,0.02
11.092151099990588,0,0,0,0,1,64,8633453,3.202162742614746,1.3938770294189453,0.6954047083854675,-0.1936165690422058,-0.6885391473770142,-0.007396726869046688,-0.018012015148997307,26.42,0.0,0.06,1.07,0.0,0.0,0.0,0.03
11.11712019998231,0,0,0,0,1,64,8633477,3.2049856185913086,1.375213623046875,0.6954047083854675,-0.31918832659721375,-0.5293776392936707,-0.0011023064143955708,-0.027673665434122086,26.42,0.01,0.07,0.8,0.0,0.0,0.0,0.0
11.154423400002997,0,0,0,0,1,64,8633515,3.2239339351654053,1.3445340394973755,0.6997509002685547,-0.48074066638946533,-0.3239523470401764,0.003767557442188263,-0.012434410862624645,26.42,0.03,0.11,0.9500000000000001,0.0,0.0,0.0,0.0
11.185758200008422,0,0,0,0,1,64,8633546,3.2403504848480225,1.3087412118911743,0.7309420704841614,-0.6481844186782837,0.004793938249349594,-0.009508125483989716,-0.007676406297832727,26.42,0.0,0.21,1.03,0.0,0.0,0.0,0.0
11.217701599991415,0,0,0,0,1,64,8633578,3.2576749324798584,1.260420799255371,0.8027833104133606,-0.889941394329071,0.610327959060669,-0.00015722602256573737,-0.0065865106880664825,26.400000000000002,0.06,0.1,1.1500000000000001,0.0,0.0,0.0,0.0
11.242123400006676,0,0,0,0,1,64,8633602,3.2662131786346436,1.228462815284729,0.8759031295776367,-1.0047917366027832,1.1399800777435303,0.0038829671684652567,-0.007685152813792229,26.42,0.0,0.08,1.11,0.04,0.0,0.0,0.0
11.278839899983723,0,0,0,0,1,64,8633639,3.2683329582214355,1.201873779296875,1.0047575235366821,-0.9314424395561218,1.8930222988128662,0.005265863612294197,-0.0037696086801588535,26.44,0.0,0.03,1.11,0.0,0.05,0.0,0.06
11.30979679999291,0,0,0,0,1,64,8633670,3.2620203495025635,1.1939482688903809,1.1111135482788086,-0.7418120503425598,2.3348910808563232,-0.00022032996639609337,-0.004938610829412937,26.400000000000002,0.0,0.12,1.03,0.0,0.23,0.05,0.19
11.342702399997506,0,0,0,0,1,64,8633703,3.252917528152466,1.1770744323730469,1.2225828170776367,-0.6503600478172302,2.636228561401367,0.0010759183205664158,-0.0004029200063087046,26.42,0.0,0.09,1.1,0.0,0.32,0.07,0.17
11.367516800004523,0,0,0,0,1,64,8633728,3.2463815212249756,1.1507411003112793,1.306951880455017,-0.7259491086006165,2.8028810024261475,-0.0026820737402886152,-0.001687193289399147,26.42,0.16,0.12,1.01,0.0,0.23,0.0,0.12
11.404605499992613,0,0,0,0,1,64,8633765,3.24096417427063,1.0924497842788696,1.4125407934188843,-0.988516092300415,2.8341736793518066,-0.008190377615392208,0.003787162248045206,26.42,0.0,0.09,0.91,0.0,0.12,0.0,0.0
11.434640799998306,0,0,0,0,1,64,8633795,3.2390310764312744,1.038504958152771,1.4813141822814941,-1.2082301378250122,2.6963465213775635,0.001259456155821681,0.0012391211930662394,26.42,0.09,0.03,0.9,0.0,0.08,0.0,0.03
11.465856399998302,0,0,0,0,1,64,8633826,3.237274646759033,0.9825145602226257,1.5339808464050293,-1.373319149017334,2.429517984390259,0.0012757042422890663,-0.0033091437071561813,26.400000000000002,0.0,0.0,0.91,0.0,0.13,0.07,0.08
11.497242599987658,0,0,0,0,1,64,8633858,3.233670473098755,0.9267799258232117,1.5659388303756714,-1.4800610542297363,2.036111831665039,0.004129067528992891,0.004969481844455004,26.42,0.0,0.0,0.91,0.0,0.17,0.11,0.16
11.522230300004594,0,0,0,0,1,64,8633883,3.229315996170044,0.8828058242797852,1.5756540298461914,-1.5411795377731323,1.6666442155838013,0.003838127013295889,-0.005341417621821165,26.400000000000002,0.0,0.0,0.88,0.0,0.19,0.12,0.2
11.56027190000168,0,0,0,0,1,64,8633921,3.2212607860565186,0.819145679473877,1.5730973482131958,-1.5902605056762695,1.0979326963424683,-0.0016129406867548823,-0.017465660348534584,26.42,0.06,0.0,0.84,0.0,0.07,0.06,0.31
11.590620400005719,0,0,0,0,1,64,8633951,3.212111234664917,0.7779838442802429,1.5603141784667969,-1.5398895740509033,0.6958739161491394,-0.0012095463462173939,-0.002543702023103833,26.44,0.14,0.0,0.79,0.0,0.0,0.04,0.37
11.621510099997977,0,0,0,0,1,64,8633982,3.20259690284729,0.7462814450263977,1.536026120185852,-1.3988871574401855,0.29009655117988586,0.001406284747645259,-0.003642433788627386,26.44,0.06,0.0,0.88,0.0,0.0,0.02,0.31
11.654110899980878,0,0,0,0,1,64,8634015,3.1962080001831055,0.7135565876960754,1.5102041959762573,-1.2708258628845215,-0.03468015044927597,-0.0009280016529373825,0.0029942644760012627,26.42,0.06,0.0,0.92,0.0,0.0,0.09,0.11
11.678298699989682,0,0,0,0,1,64,8634039,3.195950508117676,0.6851781010627747,1.4981880187988281,-1.2422255277633667,-0.1443011313676834,-0.0002745488891378045,-0.01098828949034214,26.42,0.17,0.0,0.93,0.0,0.0,0.17,0.0
11.715248900000006,0,0,0,0,1,64,8634076,3.2023651599884033,0.6404368281364441,1.4889841079711914,-1.2341256141662598,-0.1826186627149582,-0.00016796996351331472,-0.007706021890044212,26.42,0.16,0.0,1.1300000000000001,0.0,0.08,0.3,0.0
11.747084400005406,0,0,0,0,1,64,8634107,3.209639310836792,0.6115469932556152,1.484382152557373,-1.1605925559997559,-0.16550417244434357,0.002834862098097801,-0.0068512591533362865,26.42,0.11,0.0,1.24,0.0,0.07,0.43,0.0
11.777460699988296,0,0,0,0,1,64,8634138,3.212803840637207,0.5962071418762207,1.474666953086853,-0.9887762665748596,-0.19631072878837585,0.0037000374868512154,-0.0018097918946295977,26.42,0.16,0.07,1.28,0.02,0.12,0.36,0.0
11.808682800008683,0,0,0,0,1,64,8634169,3.2193973064422607,0.5956957936286926,1.4577932357788086,-0.727634847164154,-0.28844356536865234,-0.0028326178435236216,-0.0062608723528683186,26.42,0.11,0.0,0.97,0.0,0.0,0.33,0.0
11.840694999991683,0,0,0,0,1,64,8634201,3.2336106300354004,0.6033657193183899,1.4370845556259155,-0.45683327317237854,-0.38538479804992676,0.003370577935129404,-0.0029926931019872427,26.42,0.0,0.09,0.96,0.04,0.0,0.18,0.0
11.86543299999903,0,0,0,0,1,64,8634226,3.247166633605957,0.6258640289306641,1.414841651916504,-0.17359335720539093,-0.4896637201309204,0.003387439763173461,-3.9665785152465105e-05,26.42,0.11,0.07,0.99,0.12,0.08,0.0,0.0
11.902633099991363,0,0,0,0,1,64,8634263,3.263557195663452,0.7056310772895813,1.3616634607315063,0.5378578305244446,-0.7783806920051575,0.0015370191540569067,-0.01247595064342022,26.400000000000002,0.0,0.21,0.84,0.0,0.16,0.0,0.0
11.933961800008547,0,0,0,0,1,64,8634294,3.269444227218628,0.8012492060661316,1.3107866048812866,1.2380610704421997,-1.0270144939422607,0.002093757502734661,-0.0076364376582205296,26.42,0.12,0.26,1.03,0.0,0.21,0.07,0.0
11.965122399997199,0,0,0,0,1,64,8634325,3.2711942195892334,0.9009578824043274,1.2737153768539429,1.7983936071395874,-1.0929737091064453,0.006150891538709402,-0.008247745223343372,26.44,0.0,0.08,1.1500000000000001,0.0,0.14,0.12,0.0
11.995537499984493,0,0,0,0,1,64,8634356,3.268420934677124,1.0001553297042847,1.2545408010482788,2.186117649078369,-0.9729878306388855,0.0029348244424909353,-0.012138059362769127,26.400000000000002,0.06,0.14,1.1500000000000001,0.1,0.02,0.02,0.06
12.026460799999768,0,0,0,0,1,64,8634387,3.2615857124328613,1.104210376739502,1.236899971961975,2.5010337829589844,-0.8467981815338135,0.0032950344029814005,-0.00731470575556159,26.42,0.0,0.1,1.08,0.0,0.0,0.0,0.21
12.058167899987893,0,0,0,0,1,64,8634418,3.251711130142212,1.2095437049865723,1.2069870233535767,2.7477829456329346,-0.8599212765693665,0.0001614400534890592,0.003011545864865184,26.400000000000002,0.0,0.17,0.98,0.0,0.0,0.0,0.23
12.089130000007572,0,0,0,0,1,64,8634449,3.2444021701812744,1.30234956741333,1.1671037673950195,2.8325672149658203,-0.9721075892448425,-0.00441023102030158,-0.005756759084761143,26.400000000000002,0.0,0.08,0.87,0.0,0.0,0.0,0.08
12.119921699981205,0,0,0,0,1,64,8634480,3.2423181533813477,1.3726569414138794,1.123641014099121,2.6924006938934326,-1.0882031917572021,-0.0011326064122840762,-0.003137853927910328,26.42,0.0,0.1,0.84,0.05,0.0,0.0,0.0
12.151231700001517,0,0,0,0,1,64,8634512,3.243438243865967,1.4220000505447388,1.0760875940322876,2.373526096343994,-1.1998095512390137,-0.0022083469666540623,-0.002065367763862014,26.42,0.01,0.06,0.87,0.03,0.0,0.0,0.0
12.176452399988193,0,0,0,0,1,64,8634537,3.2448904514312744,1.4488447904586792,1.0346702337265015,2.0757384300231934,-1.2991267442703247,-0.00016915006563067436,0.005096069071441889,26.42,0.12,0.05,0.89,0.0,0.0,0.0,0.0
12.211938499996904,0,0,0,0,1,64,8634572,3.2472152709960938,1.4710874557495117,0.9763787388801575,1.6360855102539062,-1.4154231548309326,0.00021964363986626267,0.0020045945420861244,26.44,0.01,0.0,0.9,0.0,0.0,0.0,0.0
12.234059899987187,0,0,0,0,1,64,8634594,3.247265100479126,1.4759451150894165,0.9433981776237488,1.3525571823120117,-1.4392188787460327,-0.002741109812632203,-0.0032323854975402355,26.42,0.0,0.0,0.92,0.01,0.0,0.01,0.04
12.273933199991006,0,0,0,0,1,64,8634634,3.24249005317688,1.47568941116333,0.8966118693351746,0.8811329007148743,-1.355492115020752,-0.0010316194966435432,-0.004338257014751434,26.42,0.01,0.0,0.96,0.06,0.03,0.04,0.36
12.30516789999092,0,0,0,0,1,64,8634665,3.2298219203948975,1.4751781225204468,0.8736022114753723,0.6316106915473938,-1.1905766725540161,0.0025309131015092134,-0.005818480160087347,26.42,0.0,0.0,0.96,0.1,0.11,0.0,0.56
12.336491299996851,0,0,0,0,1,64,8634697,3.2128617763519287,1.4667412042617798,0.8574953079223633,0.3870871067047119,-0.9968937635421753,0.003954812418669462,0.0022002779878675938,26.42,0.14,0.0,0.97,0.06,0.15,0.0,0.59
12.361394699983066,0,0,0,0,1,64,8634722,3.2009189128875732,1.4542137384414673,0.8439452052116394,0.18568788468837738,-0.8829912543296814,0.005005034618079662,0.006598080508410931,26.44,0.0,0.0,0.96,0.05,0.13,0.0,0.49
12.398260899994057,0,0,0,0,1,64,8634759,3.1873574256896973,1.4358059167861938,0.8101975321769714,-0.03799457475543022,-0.8759855031967163,0.00032845736132003367,0.008229256607592106,26.44,0.09,0.04,0.88,0.01,0.1,0.0,0.26
12.423474199982593,0,0,0,0,1,64,8634784,3.1836793422698975,1.4255794286727905,0.7787510752677917,-0.12592752277851105,-0.9579821228981018,0.00042884773574769497,0.0015000039711594582,26.42,0.14,0.03,0.93,0.0,0.12,0.0,0.08
12.460121099982643,0,0,0,0,1,64,8634820,3.1869235038757324,1.4125404357910156,0.7311976552009583,-0.19838392734527588,-1.0742955207824707,0.000672277994453907,0.008526654914021492,26.42,0.0,0.0,1.03,0.0,0.09,0.0,0.0
12.480448699992849,0,0,0,0,1,64,8634841,3.1918234825134277,1.4053817987442017,0.7081880569458008,-0.22481828927993774,-1.0906517505645752,0.0013425061479210854,0.01319598313421011,26.42,0.03,0.0,1.12,0.03,0.06,0.0,0.0
12.506567799980985,0,0,0,0,1,64,8634867,3.1958909034729004,1.3954111337661743,0.6872234344482422,-0.2576618790626526,-1.0327186584472656,0.000356482807546854,0.003701432142406702,26.42,0.16,0.0,1.18,0.06,0.02,0.0,0.04
12.538114800001495,0,0,0,0,1,64,8634898,3.195868492126465,1.3772588968276978,0.6785309910774231,-0.3397384583950043,-0.8410254716873169,-0.004193364642560482,-0.00010246298916172236,26.42,0.0,0.01,1.07,0.0,0.0,0.0,0.07
12.569410199997947,0,0,0,0,1,64,8634930,3.1989002227783203,1.3516926765441895,0.6818545460700989,-0.46906721591949463,-0.5700214505195618,-0.0015637303004041314,0.007814111188054085,26.42,0.12,0.08,0.8200000000000001,0.0,0.0,0.0,0.0
12.594626499980222,0,0,0,0,1,64,8634955,3.209141731262207,1.330216884613037,0.6915696263313293,-0.5541841983795166,-0.361106812953949,0.009215475991368294,0.007414397317916155,26.42,0.03,0.14,0.88,0.0,0.0,0.0,0.0
12.63121960000717,0,0,0,0,1,64,8634992,3.2275681495666504,1.2900776863098145,0.7396345138549805,-0.7152831554412842,0.13841629028320312,0.004401401150971651,0.0025656784418970346,26.42,0.0,0.25,1.0,0.0,0.0,0.0,0.0
12.657051899994258,0,0,0,0,1,64,8635017,3.240680694580078,1.2581197023391724,0.7997153401374817,-0.8452212810516357,0.6336466073989868,0.0036983725149184465,-0.001128421281464398,26.44,0.0,0.14,1.11,0.0,0.0,0.0,0.0
12.693717699992703,0,0,0,0,1,64,8635054,3.25048828125,1.2202816009521484,0.9170649647712708,-0.9161226749420166,1.4386649131774902,7.664947770535946e-05,-0.0003652850282378495,26.42,0.06,0.1,1.25,0.03,0.0,0.03,0.0
12.719025400001556,0,0,0,0,1,64,8635079,3.248122453689575,1.2057088613510132,1.007569670677185,-0.8504819869995117,1.9417201280593872,0.0023566102609038353,-0.005849297158420086,26.42,0.0,0.1,1.21,0.0,0.04,0.08,0.12
12.754881300003035,0,0,0,0,1,64,8635115,3.2387888431549072,1.1913915872573853,1.1351457834243774,-0.7023009061813354,2.453815221786499,0.00236407108604908,8.625465852674097e-05,26.42,0.06,0.09,1.1,0.0,0.27,0.21,0.23
12.775580099987565,0,0,0,0,1,64,8635136,3.232238292694092,1.1788641214370728,1.2069870233535767,-0.6689934730529785,2.6439714431762695,-0.0003414134553167969,0.004654652904719114,26.42,0.0,0.08,1.03,0.0,0.38,0.27,0.22
12.815884099982213,0,0,0,0,1,64,8635176,3.2221908569335938,1.1354013681411743,1.3348188400268555,-0.7930299043655396,2.8391025066375732,-0.00025487516541033983,-0.0038471631705760956,26.42,0.09,0.13,0.9,0.0,0.4,0.26,0.09
12.846549599984428,0,0,0,0,1,64,8635207,3.2192764282226562,1.0863138437271118,1.4120292663574219,-1.0061272382736206,2.754317283630371,0.001017353730276227,0.002549972152337432,26.44,0.0,0.08,0.87,0.0,0.3,0.25,0.0
12.876587399980053,0,0,0,0,1,64,8635237,3.219477891921997,1.031601905822754,1.466230034828186,-1.2210875749588013,2.512585401535034,-0.0037063502240926027,0.0003498244332149625,26.42,0.0,0.1,0.89,0.0,0.21,0.22,0.0
12.907629599998472,0,0,0,0,1,64,8635268,3.220503330230713,0.9722879528999329,1.4981880187988281,-1.410346269607544,2.1167619228363037,0.004110703244805336,-0.004828696604818106,26.44,0.06,0.1,0.93,0.0,0.16,0.25,0.0
12.939232600008836,0,0,0,0,1,64,8635300,3.2227487564086914,0.9101617932319641,1.5086702108383179,-1.5607813596725464,1.6157171726226807,0.008065368980169296,-0.008881136775016785,26.400000000000002,0.0,0.07,0.9400000000000001,0.0,0.11,0.25,0.0
12.964633399999002,0,0,0,0,1,64,8635325,3.2255945205688477,0.8626084327697754,1.5071362257003784,-1.6420533657073975,1.2257673740386963,0.0028560026548802853,-0.014307284727692604,26.42,0.04,0.0,0.9400000000000001,0.0,0.05,0.18,0.0
13.001168199989479,0,0,0,0,1,64,8635361,3.2249763011932373,0.80585116147995,1.501511573791504,-1.6345919370651245,0.7904661893844604,-0.001108117401599884,-0.015258442610502243,26.42,0.09,0.0,0.86,0.0,0.0,0.09,0.19
13.021635999990394,0,0,0,0,1,64,8635382,3.2200300693511963,0.781818687915802,1.4938416481018066,-1.544863224029541,0.565086305141449,-0.004401818849146366,-0.005021378397941589,26.42,0.0,0.0,0.84,0.0,0.0,0.08,0.32
13.048269099992467,0,0,0,0,1,64,8635409,3.210571527481079,0.7588090896606445,1.4808028936386108,-1.3792582750320435,0.3082343637943268,-0.006672683171927929,0.001075903419405222,26.400000000000002,0.0,0.0,0.91,0.0,0.0,0.14,0.45
13.07950880000135,0,0,0,0,1,64,8635440,3.1972615718841553,0.7373332977294922,1.4659744501113892,-1.184495210647583,0.08860330283641815,0.0036885254085063934,0.004679163917899132,26.42,0.0,0.0,0.92,0.0,0.0,0.17,0.49
13.109852599998703,0,0,0,0,1,64,8635470,3.1854984760284424,0.7145792841911316,1.4542137384414673,-1.061931848526001,-0.04479897394776344,-0.001723405672237277,-0.002610135590657592,26.42,0.0,0.04,0.88,0.0,0.0,0.15,0.36
13.14123649999965,0,0,0,0,1,64,8635502,3.177680253982544,0.6867119669914246,1.4447542428970337,-1.000389575958252,-0.11810196191072464,-0.006336249876767397,-0.008640781044960022,26.42,0.08,0.07,0.91,0.0,0.0,0.14,0.15
13.173233399982564,0,0,0,0,1,64,8635534,3.177867889404297,0.6578219532966614,1.4404081106185913,-0.9713878035545349,-0.12553901970386505,0.0011266301153227687,0.009095325134694576,26.400000000000002,0.0,0.0,1.03,0.0,0.0,0.15,0.0
13.19782820000546,0,0,0,0,1,64,8635558,3.1829943656921387,0.6360905766487122,1.4401521682739258,-0.9571969509124756,-0.09672627598047256,0.0019189337035641074,0.016623307019472122,26.42,0.0,0.0,1.1,0.0,0.0,0.2,0.0
13.235844399983762,0,0,0,0,1,64,8635596,3.1927225589752197,0.6023430824279785,1.4401521682739258,-0.9338462352752686,-0.06381966173648834,0.0016763408202677965,0.034972868859767914,26.44,0.0,0.0,1.22,0.0,0.06,0.24,0.0
13.266345299984096,0,0,0,0,1,64,8635627,3.1959123611450195,0.5844466090202332,1.43682861328125,-0.8495296835899353,-0.06646374613046646,0.004612899385392666,0.01270474772900343,26.42,0.0,0.03,1.1,0.0,0.15,0.13,0.0
13.298318199987989,0,0,0,0,1,64,8635659,3.2034249305725098,0.583423912525177,1.418932318687439,-0.6305345296859741,-0.19122464954853058,0.003721291199326515,0.0012994848657399416,26.42,0.0,0.1,0.9,0.0,0.0,0.01,0.0
13.322829299984733,0,0,0,0,1,64,8635683,3.2172508239746094,0.5903269648551941,1.4012914896011353,-0.4327796697616577,-0.3119896948337555,0.005105230491608381,-0.0029369581025093794,26.42,0.0,0.11,0.89,0.01,0.01,0.0,0.0
13.36071009997977,0,0,0,0,1,64,8635721,3.2466979026794434,0.6235631108283997,1.3677994012832642,-0.02390889823436737,-0.4921272099018097,0.0024524289183318615,0.003584910649806261,26.42,0.11,0.1,0.8300000000000001,0.14,0.23,0.0,0.0
13.391977899998892,0,0,0,0,1,64,8635752,3.2656750679016113,0.6867119669914246,1.3256152868270874,0.5140772461891174,-0.715915858745575,0.00310134538449347,-0.002089459216222167,26.44,0.0,0.21,0.96,0.0,0.32,0.0,0.0
13.423493399983272,0,0,0,0,1,64,8635784,3.276080846786499,0.7797734141349792,1.2726926803588867,1.1813135147094727,-0.9831740856170654,0.0005798722850158811,0.004072144627571106,26.42,0.0,0.21,1.32,0.0,0.51,0.0,0.0
13.447692799993092,0,0,0,0,1,64,8635808,3.2783560752868652,0.8590291142463684,1.2402235269546509,1.6519653797149658,-1.0828988552093506,0.0007762124296277761,0.005135795101523399,26.42,0.12,0.1,1.34,0.0,0.54,0.05,0.0
13.486581599980127,0,0,0,0,1,64,8635847,3.272705078125,0.9960648417472839,1.2051976919174194,2.279040575027466,-1.0316423177719116,-0.005352465435862541,0.00794959906488657,26.42,0.01,0.06,1.21,0.0,0.2,0.06,0.23
13.517545099981362,0,0,0,0,1,64,8635878,3.260953187942505,1.1100906133651733,1.1832107305526733,2.6605498790740967,-0.9342838525772095,-0.0016381137538701296,1.6610254533588886e-05,26.44,0.0,0.1,1.09,0.0,0.0,0.0,0.43
13.548775700008264,0,0,0,0,1,64,8635909,3.2449073791503906,1.2182363271713257,1.1538091897964478,2.8969168663024902,-0.9231023788452148,-0.0037613511085510254,0.0027420264668762684,26.42,0.0,0.11,0.89,0.0,0.0,0.0,0.43
13.58027539998875,0,0,0,0,1,64,8635941,3.2323696613311768,1.31206476688385,1.118016242980957,2.9242632389068604,-0.9756308197975159,0.005097517278045416,0.004003102891147137,26.44,0.0,0.1,0.8200000000000001,0.02,0.0,0.0,0.25
13.604898199992022,0,0,0,0,1,64,8635965,3.227177381515503,1.3662654161453247,1.0893821716308594,2.791292667388916,-1.021544098854065,0.0033887075260281563,0.0036603661719709635,26.42,0.01,0.1,0.8,0.0,0.0,0.0,0.12
13.64244259998668,0,0,0,0,1,64,8636003,3.224026918411255,1.4248123168945312,1.0420843362808228,2.3847858905792236,-1.0918731689453125,-0.0004351927782408893,0.0038232901133596897,26.42,0.0,0.07,0.84,0.0,0.0,0.0,0.0
13.673471099988092,0,0,0,0,1,64,8636034,3.2237277030944824,1.4557476043701172,1.0011781454086304,2.0007481575012207,-1.1541692018508911,-0.003957746550440788,0.006941851228475571,26.400000000000002,0.01,0.05,0.89,0.0,0.0,0.0,0.0
13.705396699981065,0,0,0,0,1,64,8636066,3.223264455795288,1.4762006998062134,0.9602721333503723,1.6131030321121216,-1.1932588815689087,0.00034286477603018284,0.005169886630028486,26.44,0.03,0.0,0.9,0.0,0.0,0.0,0.05
13.729901999991853,0,0,0,0,1,64,8636090,3.222109317779541,1.4833593368530273,0.9339386820793152,1.3288147449493408,-1.176520824432373,-0.0013618671800941229,0.0018014567904174328,26.42,0.12,0.0,0.9500000000000001,0.0,0.05,0.0,0.13
13.766613999992842,0,0,0,0,1,64,8636127,3.216219902038574,1.4843820333480835,0.9053042531013489,0.9095471501350403,-1.055039405822754,0.0024106872733682394,0.0034449610393494368,26.42,0.0,0.0,1.03,0.0,0.08,0.0,0.4
13.79846429999452,0,0,0,0,1,64,8636159,3.2021048069000244,1.4843820333480835,0.8858740925788879,0.6455252766609192,-0.9247989654541016,0.004413087852299213,0.007435121573507786,26.42,0.0,0.0,1.0,0.01,0.08,0.0,0.65
13.82293219998246,0,0,0,0,1,64,8636183,3.1877236366271973,1.4810584783554077,0.8725795745849609,0.4804927706718445,-0.8406814336776733,-0.009376287460327148,-0.0007290177163667977,26.42,0.03,0.0,0.89,0.03,0.12,0.0,0.65
13.860731299995678,0,0,0,0,1,64,8636221,3.1688740253448486,1.4636732339859009,0.8503367304801941,0.1792811155319214,-0.7511645555496216,-0.0013485575327649713,-0.002434991067275405,26.42,0.03,0.08,0.8200000000000001,0.0,0.15,0.0,0.33
13.892163399985293,0,0,0,0,1,64,8636252,3.1629271507263184,1.4473108053207397,0.8263044357299805,-0.020655173808336258,-0.749992311000824,0.0002169471263187006,0.002417915966361761,26.400000000000002,0.0,0.03,0.9,0.0,0.09,0.0,0.08
13.929956599982688,0,0,0,0,1,64,8636290,3.1657192707061768,1.433760643005371,0.7900002598762512,-0.13490553200244904,-0.8142013549804688,0.0029715190175920725,0.004310364834964275,26.42,0.0,0.0,1.06,0.0,0.03,0.0,0.0
13.957872700004373,0,0,0,0,1,64,8636318,3.1717300415039062,1.4273691177368164,0.7639226913452148,-0.15799598395824432,-0.8467007279396057,0.000655102776363492,0.005057665519416332,26.42,0.14,0.0,1.05,0.0,0.02,0.0,0.0
13.987132699985523,0,0,0,0,1,64,8636348,3.1770622730255127,1.419954776763916,0.740401566028595,-0.1789095550775528,-0.8329947590827942,-0.0031112434808164835,0.002282768487930298,26.44,0.0,0.03,1.19,0.0,0.0,0.0,0.0
14.017102599987993,0,0,0,0,1,64,8636377,3.1800448894500732,1.407171607017517,0.7273626327514648,-0.23766562342643738,-0.7449060678482056,0.006196789443492889,-0.005405370611697435,26.42,0.03,0.07,1.08,0.0,0.0,0.0,0.0
14.049154899985297,0,0,0,0,1,64,8636410,3.1886098384857178,1.3874855041503906,0.7278741002082825,-0.3408058285713196,-0.5357072949409485,0.0025660479441285133,0.012294215150177479,26.44,0.09,0.09,1.0,0.0,0.0,0.0,0.0
14.073122300003888,0,0,0,0,1,64,8636433,3.1989283561706543,1.3729127645492554,0.7340097427368164,-0.40348416566848755,-0.3678973615169525,0.01142085064202547,-0.002501170616596937,26.42,0.06,0.15,1.07,0.0,0.0,0.0,0.0
14.109726900001988,0,0,0,0,1,64,8636470,3.218207359313965,1.3317508697509766,0.7733821868896484,-0.60892653465271,0.0627308189868927,0.007458795793354511,-0.00048451402108184993,26.42,0.0,0.2,0.9500000000000001,0.0,0.0,0.02,0.0
14.140720499999588,0,0,0,0,1,64,8636501,3.2332284450531006,1.278572916984558,0.8457348942756653,-0.9072441458702087,0.6604217886924744,0.011315356008708477,-0.0045126695185899734,26.400000000000002,0.0,0.22,0.99,0.01,0.0,0.04,0.0
14.171636699989904,0,0,0,0,1,64,8636532,3.2435789108276367,1.2282071113586426,0.9436540603637695,-1.1220372915267944,1.337606430053711,0.001813805429264903,-0.0064024245366454124,26.42,0.0,0.12,1.23,0.0,0.0,0.03,0.0
14.202710999990813,0,0,0,0,1,64,8636563,3.24491024017334,1.1970162391662598,1.0500097274780273,-1.1125495433807373,1.927115797996521,0.003532714443281293,-0.004544444382190704,26.42,0.11,0.11,1.1400000000000001,0.0,0.09,0.05,0.0
14.234328699996695,0,0,0,0,1,64,8636595,3.2410871982574463,1.1814208030700684,1.15585458278656,-0.9399732947349548,2.3273684978485107,-0.0025645638816058636,-0.004270625300705433,26.400000000000002,0.08,0.06,1.08,0.0,0.25,0.18,0.14
14.25918619998265,0,0,0,0,1,64,8636620,3.2355573177337646,1.1704273223876953,1.2407346963882446,-0.8130849599838257,2.5635313987731934,-0.0034260356333106756,-0.0017351085552945733,26.44,0.16,0.04,1.01,0.0,0.36,0.26,0.2
14.296484499995131,0,0,0,0,1,64,8636657,3.2262158393859863,1.1410259008407593,1.3619194030761719,-0.7876957058906555,2.801764965057373,0.00048820869415067136,0.0019902815110981464,26.44,0.12,0.07,0.9500000000000001,0.0,0.38,0.22,0.18
14.327916599984746,0,0,0,0,1,64,8636688,3.221325397491455,1.1036990880966187,1.4462881088256836,-0.893981397151947,2.787932872772217,0.001955020474269986,0.004526353906840086,26.42,0.06,0.0,0.9400000000000001,0.0,0.26,0.15,0.07
14.358523600007175,0,0,0,0,1,64,8636719,3.2184054851531982,1.0576796531677246,1.5132721662521362,-1.0519951581954956,2.623931407928467,-0.005957314278930426,-0.00028816028498113155,26.42,0.08,0.1,0.85,0.0,0.15,0.14,0.0
14.389862699987134,0,0,0,0,1,64,8636750,3.2193663120269775,1.0068025588989258,1.5580133199691772,-1.2119183540344238,2.3129329681396484,-0.0004866565577685833,-0.006940444000065327,26.42,0.0,0.09,0.89,0.0,0.09,0.14,0.0
14.42081579999649,0,0,0,0,1,64,8636781,3.2232251167297363,0.9572038650512695,1.5789775848388672,-1.3257657289505005,1.8704485893249512,0.0017133837100118399,-0.004047757014632225,26.42,0.12,0.03,0.9400000000000001,0.0,0.06,0.15,0.0
14.451003700000001,0,0,0,0,1,64,8636811,3.227766513824463,0.913229763507843,1.5802558660507202,-1.3641060590744019,1.3831177949905396,-0.0011678392766043544,0.02943413145840168,26.42,0.06,0.0,1.03,0.0,0.03,0.16,0.0
14.482669599994551,0,0,0,0,1,64,8636843,3.2272839546203613,0.874880313873291,1.575398325920105,-1.3244578838348389,0.9383728504180908,-0.0016607240540906787,0.0031964557711035013,26.44,0.03,0.0,1.02,0.0,0.0,0.13,0.28
14.50720100000035,0,0,0,0,1,64,8636868,3.2196362018585205,0.8518705368041992,1.5667057037353516,-1.2381154298782349,0.646770715713501,0.003948996774852276,0.002989745233207941,26.42,0.01,0.0,1.0,0.0,0.0,0.11,0.51
14.54612869999255,0,0,0,0,1,64,8636906,3.2004356384277344,0.8217023015022278,1.540372371673584,-1.087145209312439,0.21851813793182373,-0.001398057909682393,0.0021415213122963905,26.42,0.09,0.0,0.89,0.0,0.0,0.13,0.6
14.578180899989093,0,0,0,0,1,64,8636938,3.184499979019165,0.7907670140266418,1.5109710693359375,-1.0390613079071045,-0.10394580662250519,0.0008933384669944644,-0.002517073880881071,26.42,0.06,0.03,0.78,0.0,0.0,0.11,0.42
14.602161599992542,0,0,0,0,1,64,8636962,3.1768996715545654,0.7613657116889954,1.4905180931091309,-1.0726326704025269,-0.27637097239494324,-0.006867429707199335,0.005573033355176449,26.400000000000002,0.11,0.07,0.81,0.02,0.0,0.09,0.2
14.641919799993047,0,0,0,0,1,64,8637002,3.1761295795440674,0.7017962336540222,1.4672527313232422,-1.2092114686965942,-0.38833457231521606,0.0033041629940271378,0.0014206182677298784,26.44,0.01,0.04,0.9500000000000001,0.0,0.0,0.11,0.0
14.67200170000433,0,0,0,0,1,64,8637032,3.1845414638519287,0.6583334803581238,1.4590715169906616,-1.2867443561553955,-0.36045965552330017,0.0008921686094254255,0.00698461290448904,26.42,0.09,0.0,1.12,0.0,0.0,0.19,0.0
14.70380990000558,0,0,0,0,1,64,8637064,3.19411563873291,0.6235631108283997,1.4552364349365234,-1.2417463064193726,-0.2887304723262787,-0.0010334582766517997,0.006226267199963331,26.42,0.03,0.0,1.25,0.0,0.07,0.29,0.0
14.728246499988018,0,0,0,0,1,64,8637089,3.1982522010803223,0.6084790229797363,1.4491004943847656,-1.1081156730651855,-0.26592668890953064,-0.010102384723722935,-0.004239849746227264,26.400000000000002,0.0,0.0,1.22,0.0,0.18,0.28,0.0
14.767212399980053,0,0,0,0,1,64,8637128,3.2039523124694824,0.6087347865104675,1.4278806447982788,-0.7397200465202332,-0.350419819355011,0.012161007151007652,-0.0068366797640919685,26.42,0.0,0.04,0.96,0.03,0.05,0.14,0.0
14.798578099987935,0,0,0,0,1,64,8637159,3.2175493240356445,0.615637481212616,1.408961296081543,-0.4730929434299469,-0.42406797409057617,0.007589320652186871,-0.0030898444820195436,26.400000000000002,0.08,0.11,0.96,0.09,0.07,0.0,0.0
14.82922359998338,0,0,0,0,1,64,8637190,3.237011671066284,0.6391585469245911,1.3846734762191772,-0.15428902208805084,-0.5115553736686707,0.00042652362026274204,-0.0002280040644109249,26.42,0.0,0.13,0.96,0.06,0.21,0.0,0.0
14.860218499990879,0,0,0,0,1,64,8637221,3.2531611919403076,0.6938705444335938,1.3435115814208984,0.34697091579437256,-0.719318687915802,-0.00551062123849988,0.002995818154886365,26.42,0.11,0.26,0.97,0.0,0.23,0.0,0.0
14.891751099989051,0,0,0,0,1,64,8637252,3.2656407356262207,0.7751714587211609,1.2893108129501343,0.9616743326187134,-1.0005532503128052,-0.005870709661394358,-0.003099673194810748,26.42,0.0,0.14,1.1500000000000001,0.0,0.22,0.0,0.0
14.923244699981296,0,0,0,0,1,64,8637284,3.2726054191589355,0.8695113062858582,1.2404791116714478,1.5305837392807007,-1.1690157651901245,0.000578650797251612,-0.012212486937642097,26.44,0.08,0.07,1.12,0.0,0.1,0.0,0.0
14.948236099997303,0,0,0,0,1,64,8637309,3.274603843688965,0.944165050983429,1.2123562097549438,1.8653491735458374,-1.1683018207550049,0.0026065607089549303,-0.0064659384079277515,26.42,0.06,0.08,1.07,0.0,0.0,0.0,0.0
14.98606659998768,0,0,0,0,1,64,8637346,3.2722620964050293,1.0515437126159668,1.1793756484985352,2.2027926445007324,-1.0744341611862183,-0.0031618932262063026,-0.00048452260671183467,26.42,0.11,0.1,1.03,0.02,0.0,0.0,0.1
