Time,PowerKeyState,FuncKeyState ,UpKeyState ,DownKeyState ,DeviceError ,Battery ,DeviceMs ,BackIncl ,HipAngle_L ,HipAngle_R ,HipSpeed_L ,HipSpeed_R ,HipTor_L ,HipTor_R ,Voltage ,Current ,AccX ,AccY ,AccZ ,GyroX ,GyroY ,GyroZ
0.0005090000049676746,0,0,0,0,1,65,8008481,3.1360561847686768,1.066116452217102,1.57130765914917,-1.223429799079895,1.7980093955993652,-6.857357220724225e-05,-0.006353350356221199,26.46,0.0,0.14,0.91,0.0,0.12,0.4,0.0
0.02798740001162514,0,0,0,0,1,65,8008508,3.1438968181610107,1.0252103805541992,1.5817899703979492,-1.2960463762283325,1.4516828060150146,0.005906454287469387,-0.006067726761102676,26.46,0.01,0.08,0.93,0.0,0.11,0.39,0.0
0.05895760000566952,0,0,0,0,1,65,8008539,3.1498517990112305,0.983025848865509,1.5866475105285645,-1.3195183277130127,1.0928277969360352,0.0027412238996475935,-0.023330118507146835,26.48,0.0,0.0,0.93,0.0,0.05,0.35000000000000003,0.0
0.08996360001037829,0,0,0,0,1,65,8008570,3.150383949279785,0.9487670063972473,1.5866475105285645,-1.2652839422225952,0.788463294506073,0.004880761727690697,-0.03484853357076645,26.48,0.06,0.0,0.96,0.0,0.02,0.27,0.15
0.1209824999968987,0,0,0,0,1,65,8008601,3.144359827041626,0.9208996891975403,1.5856248140335083,-1.1644740104675293,0.5629033446311951,-0.0017014984041452408,-0.042662836611270905,26.48,0.03,0.0,0.9400000000000001,0.0,0.0,0.24,0.35000000000000003
0.1512450999871362,0,0,0,0,1,65,8008631,3.133951187133789,0.8971230387687683,1.5853691101074219,-1.0631802082061768,0.405612975358963,0.004123799968510866,-0.03899414464831352,26.44,0.0,0.0,0.9500000000000001,0.0,0.0,0.22,0.51
0.18326499999966472,0,0,0,0,1,65,8008663,3.118907928466797,0.874880313873291,1.5794888734817505,-0.9579113721847534,0.24822703003883362,-0.0036844501737505198,-0.019293716177344322,26.48,0.01,0.05,0.9,0.0,0.0,0.19,0.5
0.20775609998963773,0,0,0,0,1,65,8008688,3.1081738471984863,0.8592846989631653,1.5679841041564941,-0.882483720779419,0.09555811434984207,-0.0025333454832434654,-0.00841040350496769,26.48,0.11,0.12,0.89,0.0,0.0,0.2,0.38
0.24593179998919368,0,0,0,0,1,65,8008726,3.099846363067627,0.8306505084037781,1.5426734685897827,-0.8292428255081177,-0.1530729979276657,0.001736040459945798,-0.001396614359691739,26.46,0.0,0.14,0.9500000000000001,0.0,0.0,0.22,0.06
0.27659069999936037,0,0,0,0,1,65,8008757,3.1028521060943604,0.798692524433136,1.5252882242202759,-0.8754613399505615,-0.2750254273414612,6.628797564189881e-05,-0.00029905757401138544,26.48,0.0,0.1,0.99,0.02,0.0,0.23,0.0
0.3074076999910176,0,0,0,0,1,65,8008788,3.11393404006958,0.7618770599365234,1.5186409950256348,-0.9636349678039551,-0.26622557640075684,-0.003600885160267353,0.01524606253951788,26.48,0.0,0.0,1.09,0.0,0.0,0.26,0.0
0.3380921999923885,0,0,0,0,1,65,8008818,3.1240217685699463,0.7281293869018555,1.5176182985305786,-1.013121485710144,-0.20198455452919006,0.0047115362249314785,0.015147361904382706,26.46,0.0,0.0,1.24,0.06,0.0,0.15,0.0
0.36906769999768585,0,0,0,0,1,65,8008849,3.130039691925049,0.7053753733634949,1.51224946975708,-0.9507032632827759,-0.18094657361507416,0.006696997210383415,-0.0029711772222071886,26.48,0.16,0.06,1.11,0.02,0.04,0.03,0.0
0.39940379999461584,0,0,0,0,1,65,8008880,3.138223171234131,0.6997509002685547,1.4969096183776855,-0.7540836334228516,-0.2581348717212677,0.005043623503297567,-0.0024334113113582134,26.48,0.0,0.14,0.97,0.0,0.0,0.0,0.0
0.43033509998349473,0,0,0,0,1,65,8008910,3.1532323360443115,0.703841507434845,1.4787575006484985,-0.5165760517120361,-0.34848934412002563,0.004310119431465864,0.0004895078018307686,26.48,0.06,0.25,0.96,0.05,0.07,0.0,0.0
0.4614034999976866,0,0,0,0,1,65,8008942,3.173572301864624,0.7278738021850586,1.4470552206039429,-0.1806679219007492,-0.5137799382209778,0.0005033494671806693,-0.005661435890942812,26.48,0.03,0.29,0.91,0.07,0.11,0.0,0.0
0.4868521000025794,0,0,0,0,1,65,8008967,3.1866400241851807,0.774915874004364,1.4069160223007202,0.26154768466949463,-0.7508506774902344,-0.002386165549978614,-0.005723854526877403,26.46,0.0,0.35000000000000003,1.0,0.0,0.06,0.0,0.0
0.5234139999956824,0,0,0,0,1,65,8009004,3.200087070465088,0.8787152171134949,1.346068024635315,1.0652260780334473,-1.053283929824829,-0.0004659864353016019,-0.004052444826811552,26.46,0.01,0.17,1.1400000000000001,0.0,0.1,0.0,0.0
0.5488029000116512,0,0,0,0,1,65,8009029,3.204542875289917,0.9566925168037415,1.319223403930664,1.5430843830108643,-1.0799328088760376,-0.0011591620277613401,-0.0036968437489122152,26.46,0.11,0.06,1.17,0.0,0.07,0.03,0.0
0.5858804000017699,0,0,0,0,1,65,8009066,3.2003767490386963,1.073275089263916,1.3023496866226196,2.0620458126068115,-0.887969434261322,-0.006458940450102091,0.0037217317149043083,26.46,0.09,0.08,1.04,0.14,0.0,0.0,0.2
0.6109421000001021,0,0,0,0,1,65,8009091,3.1915862560272217,1.153042197227478,1.292890191078186,2.319220542907715,-0.7574013471603394,-0.0030466283205896616,0.004110754933208227,26.48,0.11,0.14,1.03,0.12,0.0,0.0,0.33
0.6483970000117552,0,0,0,0,1,65,8009129,3.175015449523926,1.2716699838638306,1.266301155090332,2.579779624938965,-0.7207728624343872,-0.005293094087392092,0.0029569859616458416,26.48,0.0,0.19,0.96,0.0,0.0,0.0,0.33
0.6797718000016175,0,0,0,0,1,65,8009160,3.1638853549957275,1.3550162315368652,1.2366441488265991,2.624408483505249,-0.7822070121765137,-0.00033586000790819526,0.0010579710360616446,26.46,0.0,0.17,0.92,0.0,0.0,0.0,0.21
0.7112335999845527,0,0,0,0,1,65,8009191,3.1568446159362793,1.4214887619018555,1.2031522989273071,2.4981367588043213,-0.8626818060874939,-0.004510365892201662,-0.005089113488793373,26.46,0.0,0.17,0.85,0.0,0.0,0.0,0.11
0.7412679999833927,0,0,0,0,1,65,8009221,3.152794122695923,1.4708318710327148,1.1673593521118164,2.2745587825775146,-0.9474416375160217,-0.009676219895482063,-0.005225013475865126,26.46,0.12,0.11,0.85,0.0,0.0,0.0,0.07
0.7727411999949254,0,0,0,0,1,65,8009253,3.1497464179992676,1.5089257955551147,1.127987265586853,1.9721797704696655,-1.0324821472167969,-0.009625677019357681,-0.003745575435459614,26.48,0.0,0.12,0.84,0.0,0.0,0.0,0.04
0.7978299999958836,0,0,0,0,1,65,8009278,3.148087978363037,1.5286117792129517,1.0980745553970337,1.7031298875808716,-1.0717291831970215,-0.003431652206927538,-0.0013428610982373357,26.46,0.01,0.07,0.93,0.03,0.0,0.0,0.1
0.8353826999955345,0,0,0,0,1,65,8009316,3.143308162689209,1.5406279563903809,1.0576797723770142,1.2545448541641235,-1.0734338760375977,0.002347955945879221,-0.0021850334014743567,26.46,0.0,0.0,0.92,0.03,0.02,0.02,0.24
0.8663784000091255,0,0,0,0,1,65,8009347,3.136319160461426,1.5406279563903809,1.0267444849014282,0.9046359062194824,-1.0494309663772583,0.011696981266140938,0.0006267036078497767,26.46,0.0,0.0,0.89,0.08,0.09,0.0,0.38
0.8974314999941271,0,0,0,0,1,65,8009378,3.1248667240142822,1.5403722524642944,0.9981101155281067,0.6475579738616943,-1.016655683517456,0.007569810841232538,0.005139750894159079,26.46,0.09,0.06,0.85,0.09,0.21,0.0,0.49
0.9292879999848083,0,0,0,0,1,65,8009410,3.1107447147369385,1.537559986114502,0.9727995991706848,0.44516491889953613,-0.9548337459564209,0.013202360831201077,0.003917508292943239,26.46,0.01,0.09,0.89,0.02,0.28,0.0,0.41000000000000003
0.9551568999886513,0,0,0,0,1,65,8009435,3.102902412414551,1.5286117792129517,0.9564371109008789,0.26909932494163513,-0.8861519694328308,0.00979327317327261,-0.00021597571321763098,26.46,0.04,0.1,0.9,0.0,0.26,0.0,0.29
0.9913938000099733,0,0,0,0,1,65,8009472,3.0977978706359863,1.5109710693359375,0.9308707118034363,0.02611657977104187,-0.8173452019691467,0.0027561686001718044,0.003582289209589362,26.46,0.03,0.1,0.9400000000000001,0.0,0.15,0.0,0.02
1.016913300001761,0,0,0,0,1,65,8009497,3.099475383758545,1.5010000467300415,0.9093949198722839,-0.07815273106098175,-0.8202365040779114,0.001134667661972344,0.0011289992835372686,26.46,0.0,0.12,0.99,0.0,0.08,0.0,0.0
1.052423599991016,0,0,0,0,1,65,8009533,3.108008861541748,1.4943528175354004,0.8738577961921692,-0.11627855896949768,-0.8683062791824341,-0.0036970621440559626,0.0027578305453062057,26.48,0.09,0.0,1.12,0.03,0.02,0.0,0.0
1.0739507999969646,0,0,0,0,1,65,8009554,3.1139028072357178,1.4946085214614868,0.8536602854728699,-0.09136293828487396,-0.8902503252029419,0.010259442031383514,0.0063446033746004105,26.48,0.0,0.0,1.11,0.07,0.05,0.0,0.0
1.1136516999977175,0,0,0,0,1,65,8009594,3.125854730606079,1.4946085214614868,0.8227249979972839,-0.0576741062104702,-0.859940767288208,0.023342948406934738,0.005249205511063337,26.46,0.0,0.0,1.2,0.12,0.11,0.0,0.0
1.1443290000024717,0,0,0,0,1,65,8009624,3.1286823749542236,1.4923075437545776,0.8112201690673828,-0.054611071944236755,-0.7403574585914612,0.01916559971868992,0.009870101697742939,26.46,0.04,0.07,1.17,0.0,0.05,0.0,0.01
1.1755064000026323,0,0,0,0,1,65,8009656,3.1337952613830566,1.4772233963012695,0.8109645843505859,-0.15943971276283264,-0.5347135663032532,0.00785735435783863,0.017731139436364174,26.46,0.03,0.05,0.9500000000000001,0.0,0.0,0.0,0.0
1.2009774000034668,0,0,0,0,1,65,8009681,3.1480278968811035,1.4593271017074585,0.8112201690673828,-0.2836194634437561,-0.4052836000919342,0.004227896220982075,0.02362007088959217,26.46,0.0,0.02,0.92,0.0,0.0,0.0,0.0
1.236206300003687,0,0,0,0,1,65,8009716,3.166879653930664,1.4212331771850586,0.8273270726203918,-0.5157362818717957,-0.16585569083690643,0.005442877300083637,0.00971140991896391,26.46,0.03,0.41000000000000003,0.81,0.0,0.0,0.0,0.0
1.2579022999852896,0,0,0,0,1,65,8009738,3.175506591796875,1.3836504220962524,0.8595406413078308,-0.7438068389892578,0.13642679154872894,-0.0023378331679850817,0.005363031290471554,26.48,0.03,0.52,0.96,0.0,0.0,0.0,0.0
1.2983682999911252,0,0,0,0,1,65,8009778,3.1980655193328857,1.3135987520217896,0.9602721333503723,-1.1066203117370605,0.9262956976890564,0.003289459738880396,-0.004243448376655579,26.46,0.0,0.2,1.11,0.0,0.0,0.0,0.0
1.3292853999882936,0,0,0,0,1,65,8009809,3.208132028579712,1.2870097160339355,1.0523109436035156,-1.0702295303344727,1.5016433000564575,0.006687293294817209,-0.0036555698607116938,26.46,0.0,0.06,1.1500000000000001,0.0,0.0,0.0,0.0
1.3602896000084002,0,0,0,0,1,65,8009840,3.2055130004882812,1.2834304571151733,1.1428155899047852,-0.8108914494514465,1.9001078605651855,-0.015153421089053154,-0.00823138002306223,26.48,0.16,0.04,1.1400000000000001,0.0,0.19,0.08,0.22
1.392423699988285,0,0,0,0,1,65,8009873,3.1930038928985596,1.2795954942703247,1.2501941919326782,-0.5882567763328552,2.2796149253845215,-0.011374890804290771,-0.005642859265208244,26.46,0.01,0.22,1.04,0.0,0.27,0.13,0.36
1.4169472999928985,0,0,0,0,1,65,8009897,3.182857036590576,1.2642556428909302,1.3340520858764648,-0.5771776437759399,2.549647331237793,-0.014733212999999523,-0.0005744871450588107,26.46,0.0,0.19,1.01,0.0,0.24,0.07,0.33
1.4545327000087127,0,0,0,0,1,65,8009935,3.1699914932250977,1.2215598821640015,1.4508901834487915,-0.7434974908828735,2.7334535121917725,-0.005474821664392948,-0.0030450434423983097,26.44,0.0,0.08,0.93,0.0,0.12,0.0,0.15
1.4862892999954056,0,0,0,0,1,65,8009966,3.162945508956909,1.1786084175109863,1.5257996320724487,-0.9243503212928772,2.659945249557495,0.0008082465501502156,8.7492517195642e-05,26.48,0.12,0.21,0.8300000000000001,0.0,0.08,0.01,0.05
1.5178400999866426,0,0,0,0,1,65,8009998,3.1603338718414307,1.1302881240844727,1.5789775848388672,-1.0902353525161743,2.3881237506866455,0.0029258334543555975,-0.008097081445157528,26.46,0.0,0.16,0.86,0.0,0.14,0.15,0.0
1.5429065999924205,0,0,0,0,1,65,8010023,3.16003155708313,1.0911716222763062,1.6053109169006348,-1.2009365558624268,2.087578296661377,-0.0003358921967446804,-0.00730609055608511,26.46,0.0,0.13,0.89,0.0,0.17,0.26,0.0
1.5803425000049174,0,0,0,0,1,65,8010061,3.1609885692596436,1.0349255800247192,1.6244856119155884,-1.2945021390914917,1.5722315311431885,0.002061608247458935,0.011727766133844852,26.46,0.0,0.08,0.9500000000000001,0.0,0.1,0.3,0.0
1.611344500008272,0,0,0,0,1,65,8010091,3.1600985527038574,0.9983657002449036,1.625764012336731,-1.2790471315383911,1.162934422492981,-0.0029103835113346577,-0.00511373532935977,26.46,0.0,0.0,0.98,0.0,0.05,0.32,0.12
1.6424244999943767,0,0,0,0,1,65,8010123,3.1537957191467285,0.9684531092643738,1.625764012336731,-1.1869415044784546,0.8249662518501282,0.0011422067182138562,-0.005831253249198198,26.48,0.0,0.0,0.9500000000000001,0.0,0.0,0.27,0.38
1.667911800002912,0,0,0,0,1,65,8010148,3.144078016281128,0.9518349766731262,1.6247414350509644,-1.0702409744262695,0.6265061497688293,-0.003773290663957596,-0.005006537307053804,26.46,0.0,0.0,0.92,0.0,0.0,0.25,0.52
1.7055204999924172,0,0,0,0,1,65,8010186,3.1245760917663574,0.9347054362297058,1.6122137308120728,-0.866564929485321,0.324576199054718,0.00027519615832716227,0.0028405445627868176,26.44,0.0,0.07,0.87,0.0,0.0,0.3,0.5700000000000001
1.7361871000030078,0,0,0,0,1,65,8010216,3.109633445739746,0.9188544154167175,1.5917607545852661,-0.7646893262863159,0.06061750650405884,-0.0013093565357849002,0.0005383888492360711,26.46,0.09,0.11,0.85,0.0,0.0,0.35000000000000003,0.4
1.7664691999962088,0,0,0,0,1,65,8010247,3.1011404991149902,0.8914983868598938,1.5664501190185547,-0.7825149297714233,-0.18340152502059937,-0.001032116124406457,-0.002998851938173175,26.48,0.0,0.19,0.85,0.04,0.0,0.36,0.12
1.7980384000111371,0,0,0,0,1,65,8010278,3.101888418197632,0.8518705368041992,1.5488094091415405,-0.9117699265480042,-0.30118608474731445,-0.005073400214314461,-0.0038359886966645718,26.46,0.09,0.15,0.9400000000000001,0.01,0.0,0.31,0.0
1.8288944000087213,0,0,0,0,1,65,8010309,3.113119602203369,0.80585116147995,1.5454856157302856,-1.068314790725708,-0.2598452866077423,0.0020707170478999615,0.014487684704363346,26.46,0.16,0.0,1.12,0.0,0.0,0.29,0.0
1.8593592999968678,0,0,0,0,1,65,8010339,3.1258344650268555,0.7652006149291992,1.5449743270874023,-1.1566532850265503,-0.18479494750499725,-0.0028446028009057045,0.023036900907754898,26.46,0.12,0.0,1.1500000000000001,0.0,0.0,0.34,0.0
1.8903676999907475,0,0,0,0,1,65,8010370,3.132317066192627,0.7342653274536133,1.5439516305923462,-1.1271547079086304,-0.13948838412761688,-0.002092903945595026,0.025451013818383217,26.46,0.0,0.0,1.35,0.03,0.01,0.32,0.09
1.92125769998529,0,0,0,0,1,65,8010401,3.131197929382324,0.7176472544670105,1.536281943321228,-0.9747512340545654,-0.15547902882099152,0.002799597568809986,0.008593608625233173,26.46,0.04,0.07,1.03,0.02,0.01,0.17,0.07
1.9524800000071991,0,0,0,0,1,65,8010433,3.13472843170166,0.7168801426887512,1.5171070098876953,-0.7093607783317566,-0.2738969326019287,-0.003574465401470661,0.0038550025783479214,26.48,0.0,0.14,0.87,0.0,0.0,0.03,0.0
1.983161399984965,0,0,0,0,1,65,8010463,3.149907112121582,0.7186698913574219,1.4974209070205688,-0.4971020817756653,-0.3777652382850647,-0.0007097566849552095,-0.0024327237624675035,26.46,0.12,0.1,0.98,0.13,0.11,0.0,0.0
2.0144256000057794,0,0,0,0,1,65,8010495,3.1693060398101807,0.7370777130126953,1.4644403457641602,-0.21778488159179688,-0.5446767210960388,-0.0012892619706690311,0.00038065179251134396,26.48,0.0,0.32,0.96,0.08,0.11,0.0,0.0
2.0390102000092156,0,0,0,0,1,65,8010519,3.177222490310669,0.7726147770881653,1.4263464212417603,0.13389724493026733,-0.764842689037323,0.0013589411973953247,0.005907631479203701,26.46,0.0,0.43,0.97,0.0,0.03,0.0,0.0
2.0762961999862455,0,0,0,0,1,65,8010556,3.1877036094665527,0.8557054400444031,1.3639646768569946,0.7985603213310242,-1.070130467414856,-0.006681098602712154,0.005344890058040619,26.48,0.08,0.29,1.08,0.0,0.08,0.0,0.0
2.1078061999869533,0,0,0,0,1,65,8010588,3.1946449279785156,0.9398186802864075,1.326382040977478,1.318364143371582,-1.1184914112091064,-0.005521714687347412,-0.0017835000762715936,26.48,0.06,0.07,1.1400000000000001,0.02,0.06,0.0,0.0
2.13192089999211,0,0,0,0,1,65,8010612,3.19380521774292,1.0085922479629517,1.3079742193222046,1.6535364389419556,-1.046974778175354,0.0029100123792886734,-0.004185742232948542,26.48,0.16,0.1,1.05,0.06,0.0,0.0,0.11
2.17013029998634,0,0,0,0,1,65,8010650,3.182116985321045,1.1256861686706543,1.2813854217529297,2.1176834106445312,-0.9212087988853455,0.0005729844560846686,0.001734129968099296,26.48,0.0,0.17,0.96,0.12,0.0,0.0,0.36
2.2016014000109863,0,0,0,0,1,65,8010682,3.1671688556671143,1.225650429725647,1.2527509927749634,2.4051709175109863,-0.9033814072608948,0.0043626707047224045,0.007389209698885679,26.46,0.03,0.24,0.91,0.0,0.0,0.0,0.33
2.2265466999961063,0,0,0,0,1,65,8010707,3.1577818393707275,1.2969807386398315,1.2271846532821655,2.5166056156158447,-0.9254361391067505,0.0037651965394616127,0.007398154586553574,26.48,0.0,0.25,0.8200000000000001,0.0,0.0,0.0,0.24
2.2641241000092123,0,0,0,0,1,65,8010744,3.14916729927063,1.3854402303695679,1.1875568628311157,2.4809842109680176,-0.971672534942627,-0.0056838118471205235,0.0008621743763796985,26.48,0.0,0.14,0.84,0.0,0.0,0.0,0.12
2.2944259000068996,0,0,0,0,1,65,8010775,3.1451480388641357,1.4444984197616577,1.1507412195205688,2.325878620147705,-1.0288426876068115,-0.006499136798083782,-0.001284177997149527,26.46,0.0,0.14,0.85,0.04,0.0,0.0,0.06
2.326049499999499,0,0,0,0,1,65,8010806,3.1429545879364014,1.4907735586166382,1.1123918294906616,2.0982959270477295,-1.0880892276763916,-0.009478800930082798,0.008228262886404991,26.46,0.0,0.14,0.88,0.07,0.0,0.0,0.03
2.3566118000017013,0,0,0,0,1,65,8010837,3.1411871910095215,1.5217088460922241,1.0773658752441406,1.8031752109527588,-1.1046453714370728,0.0015980121679604053,0.006698572542518377,26.46,0.0,0.08,0.9400000000000001,0.03,0.0,0.0,0.07
2.3872914999956265,0,0,0,0,1,65,8010867,3.1385674476623535,1.5362815856933594,1.0505212545394897,1.457535743713379,-1.0529690980911255,-0.001871403306722641,0.0005010589957237244,26.46,0.06,0.06,0.92,0.05,0.0,0.0,0.16
2.41810079998686,0,0,0,0,1,65,8010898,3.13344144821167,1.5383268594741821,1.0295568704605103,1.073636531829834,-0.9500967264175415,0.009419099427759647,-5.0184986321255565e-05,26.48,0.12,0.0,0.97,0.09,0.01,0.0,0.34
2.4501403000031132,0,0,0,0,1,65,8010930,3.1218864917755127,1.5383268594741821,1.010637640953064,0.7593734860420227,-0.845921516418457,0.021641027182340622,0.0013130145380273461,26.46,0.0,0.0,0.9,0.1,0.11,0.0,0.58
2.473873899987666,0,0,0,0,1,65,8010954,3.108397960662842,1.5378156900405884,0.9970874786376953,0.5850087404251099,-0.783335268497467,0.013115215115249157,-0.008615807630121708,26.46,0.01,0.02,0.88,0.07,0.22,0.0,0.7000000000000001
2.5119152999832295,0,0,0,0,1,65,8010992,3.0849695205688477,1.5260549783706665,0.9776573181152344,0.30258938670158386,-0.6912542581558228,0.0005399126675911248,-0.008763212710618973,26.46,0.04,0.14,0.84,0.06,0.25,0.0,0.58
2.5438083999906667,0,0,0,0,1,65,8011024,3.0711824893951416,1.5086699724197388,0.9592494964599609,0.06419756263494492,-0.6516371369361877,0.00043787143658846617,-0.0021873745135962963,26.46,0.09,0.17,0.87,0.02,0.21,0.0,0.21
2.568081900011748,0,0,0,0,1,65,8011048,3.069110631942749,1.4992103576660156,0.937262237071991,-0.048113323748111725,-0.6951615214347839,0.004037467297166586,0.0026682852767407894,26.48,0.06,0.17,0.92,0.0,0.17,0.0,0.0
2.60567620000802,0,0,0,0,1,65,8011086,3.0817699432373047,1.4971650838851929,0.887152373790741,-0.05602055415511131,-0.8922737240791321,0.005393869709223509,0.005388016812503338,26.46,0.0,0.02,1.1,0.0,0.01,0.0,0.0
2.637264099990716,0,0,0,0,1,65,8011117,3.103466033935547,1.4981876611709595,0.8418998718261719,-0.02597668021917343,-1.0535426139831543,0.0016905394149944186,0.008307835087180138,26.48,0.09,0.0,1.1400000000000001,0.03,0.0,0.0,0.0
2.6682566000090446,0,0,0,0,1,65,8011148,3.1215696334838867,1.4971650838851929,0.8043174743652344,-0.025663020089268684,-1.1101171970367432,-0.0014922168338671327,0.006214827764779329,26.46,0.08,0.0,1.29,0.1,0.0,0.0,0.0
2.6992047000094317,0,0,0,0,1,65,8011179,3.1273882389068604,1.492563247680664,0.7853981852531433,-0.05166318267583847,-0.9938251376152039,0.004154694266617298,0.01223800890147686,26.46,0.0,0.11,1.11,0.03,0.0,0.0,0.0
2.7304269000014756,0,0,0,0,1,65,8011211,3.1351733207702637,1.4764562845230103,0.7882105708122253,-0.1720096617937088,-0.6933017373085022,0.008205940946936607,0.024138839915394783,26.44,0.0,0.14,0.9500000000000001,0.0,0.09,0.0,0.0
2.755022800003644,0,0,0,0,1,65,8011235,3.143984317779541,1.4562591314315796,0.7992041707038879,-0.3087845742702484,-0.448011189699173,0.0046004848554730415,0.006384468637406826,26.48,0.0,0.38,0.88,0.0,0.01,0.09,0.0
2.7924012999865226,0,0,0,0,1,65,8011273,3.160815715789795,1.4069160223007202,0.8434340357780457,-0.6230065822601318,0.0607314296066761,0.0017734004650264978,0.0038502472452819347,26.46,0.0,0.43,1.0,0.0,0.0,0.33,0.0
2.8234482999832835,0,0,0,0,1,65,8011304,3.1766178607940674,1.3596181869506836,0.9076054692268372,-0.8768328428268433,0.599341869354248,0.0058667962439358234,0.007280747406184673,26.46,0.0,0.21,1.07,0.03,0.0,0.36,0.0
2.8542078000027686,0,0,0,0,1,65,8011334,3.186474561691284,1.3228026628494263,0.9909518361091614,-0.9864485263824463,1.169119954109192,0.0047779325395822525,0.006154178641736507,26.46,0.0,0.17,1.1400000000000001,0.03,0.0,0.34,0.0
2.884427399985725,0,0,0,0,1,65,8011365,3.186271905899048,1.2992815971374512,1.0875924825668335,-0.9348688125610352,1.7077102661132812,0.009319274686276913,0.00016167826834134758,26.46,0.0,0.1,1.1500000000000001,0.0,0.17,0.33,0.09
2.916316699993331,0,0,0,0,1,65,8011396,3.1777732372283936,1.28445303440094,1.1888351440429688,-0.806938111782074,2.136967658996582,0.006228106562048197,-0.005864609964191914,26.46,0.0,0.12,1.03,0.0,0.25,0.32,0.3
2.9465026000107173,0,0,0,0,1,65,8011427,3.1657278537750244,1.266556739807129,1.2977476119995117,-0.7318743467330933,2.515277147293091,0.00341752334497869,-0.007124566473066807,26.48,0.0,0.16,0.97,0.0,0.29,0.28,0.36
2.9765308999922127,0,0,0,0,1,65,8011457,3.1538681983947754,1.2412461042404175,1.3969453573226929,-0.7517741322517395,2.736562490463257,0.006557726766914129,-0.005306941922754049,26.48,0.01,0.17,0.86,0.01,0.26,0.2,0.3
3.0077772999939043,0,0,0,0,1,65,8011488,3.144716739654541,1.2064757347106934,1.48463773727417,-0.8454009294509888,2.7698888778686523,0.006174652837216854,-0.005930762737989426,26.46,0.06,0.21,0.8,0.0,0.22,0.11,0.17
3.038856500003021,0,0,0,0,1,65,8011519,3.1395065784454346,1.1660809516906738,1.5564790964126587,-0.9678963422775269,2.6568338871002197,0.00016503615188412368,-0.006729134824126959,26.46,0.14,0.14,0.88,0.0,0.18,0.11,0.07
3.07036959999823,0,0,0,0,1,65,8011550,3.1372487545013428,1.1226181983947754,1.6073561906814575,-1.0886774063110352,2.389252185821533,0.0018833022331818938,-0.005201077554374933,26.46,0.06,0.1,0.9,0.0,0.1,0.15,0.0
3.1016353000013623,0,0,0,0,1,65,8011582,3.1364669799804688,1.0765987634658813,1.6393141746520996,-1.189209222793579,2.002816677093506,-0.001038549467921257,-0.0005556675023399293,26.46,0.0,0.13,0.9,0.0,0.06,0.24,0.0
3.125977999996394,0,0,0,0,1,65,8011606,3.1367275714874268,1.0456634759902954,1.6492849588394165,-1.2172715663909912,1.6592400074005127,0.003223088104277849,0.00273657008074224,26.46,0.01,0.07,0.92,0.0,0.06,0.27,0.0
3.1637549999868497,0,0,0,0,1,65,8011644,3.1344807147979736,1.006546974182129,1.6464728116989136,-1.1597578525543213,1.0885415077209473,-0.003255759831517935,0.02062232233583927,26.46,0.0,0.0,0.96,0.0,0.05,0.24,0.25
3.194627999997465,0,0,0,0,1,65,8011675,3.1255393028259277,0.9835371971130371,1.641103744506836,-1.0498095750808716,0.7351190447807312,-0.0022779968567192554,-0.0016078015323728323,26.46,0.08,0.0,0.96,0.0,0.0,0.18,0.44
3.225300199992489,0,0,0,0,1,65,8011705,3.1128010749816895,0.9635953903198242,1.6303659677505493,-0.9399815797805786,0.44602274894714355,-0.004219702444970608,0.0010140328668057919,26.46,0.0,0.07,0.92,0.0,0.0,0.16,0.47000000000000003
3.256338600011077,0,0,0,0,1,65,8011736,3.1005659103393555,0.9390518069267273,1.6124695539474487,-0.8870689272880554,0.16829785704612732,0.0031976785976439714,0.0036896965466439724,26.44,0.01,0.1,0.87,0.0,0.0,0.15,0.35000000000000003
3.287699899985455,0,0,0,0,1,65,8011768,3.0939862728118896,0.9050485491752625,1.5884370803833008,-0.9258790612220764,-0.08956385403871536,0.0042428807355463505,0.004418578464537859,26.46,0.11,0.13,0.9,0.04,0.0,0.13,0.06
3.3120378000021446,0,0,0,0,1,65,8011792,3.0951526165008545,0.8738576769828796,1.5702849626541138,-1.0039143562316895,-0.23848186433315277,0.005364459007978439,0.010220862925052643,26.46,0.0,0.14,0.9500000000000001,0.03,0.0,0.18,0.0
3.350476699997671,0,0,0,0,1,65,8011831,3.104387044906616,0.8211910128593445,1.5457414388656616,-1.1235765218734741,-0.37165796756744385,0.0023045390844345093,0.005785265006124973,26.48,0.08,0.05,1.05,0.0,0.0,0.24,0.0
3.3821751000068616,0,0,0,0,1,65,8011862,3.1149539947509766,0.7848866581916809,1.5329581499099731,-1.1432722806930542,-0.3865646421909332,0.006736980751156807,0.003980186767876148,26.48,0.17,0.0,1.1400000000000001,0.0,0.0,0.3,0.0
3.412453800003277,0,0,0,0,1,65,8011893,3.1199076175689697,0.7572751045227051,1.5242656469345093,-1.081588864326477,-0.3551972806453705,0.001153499586507678,0.005219294223934412,26.48,0.09,0.07,1.26,0.1,0.05,0.2,0.0
3.443342299986398,0,0,0,0,1,65,8011923,3.122150182723999,0.741168200969696,1.512505054473877,-0.9427697658538818,-0.3559284508228302,0.00029473897302523255,0.0009323719423264265,26.46,0.09,0.07,1.06,0.01,0.04,0.04,0.0
3.4746660999953747,0,0,0,0,1,65,8011955,3.1287477016448975,0.7365663647651672,1.497165322303772,-0.7233914732933044,-0.3882315158843994,0.008275613188743591,0.003909100778400898,26.46,0.0,0.13,0.93,0.0,0.0,0.0,0.0
3.4991107000096235,0,0,0,0,1,65,8011979,3.1383111476898193,0.7381003499031067,1.4877057075500488,-0.54720139503479,-0.3911117911338806,0.016582507640123367,0.00459914468228817,26.48,0.0,0.17,0.89,0.06,0.0,0.0,0.0
3.5371337000105996,0,0,0,0,1,65,8012017,3.159968852996826,0.7585533261299133,1.4618839025497437,-0.21514157950878143,-0.4671211242675781,-0.002022866625338793,0.007135874591767788,26.46,0.08,0.28,0.93,0.06,0.05,0.0,0.0
3.567552099993918,0,0,0,0,1,65,8012048,3.169503688812256,0.813265323638916,1.414841651916504,0.2997623383998871,-0.7354742884635925,0.0037157575134187937,0.008103209547698498,26.46,0.0,0.39,0.96,0.0,0.09,0.0,0.0
3.5991565999865998,0,0,0,0,1,65,8012079,3.1789467334747314,0.8914983868598938,1.3611522912979126,0.9126148223876953,-1.0230510234832764,-0.00301769794896245,0.006044803652912378,26.46,0.0,0.28,1.06,0.0,0.21,0.0,0.0
3.6305169999832287,0,0,0,0,1,65,8012111,3.184699296951294,0.9825145602226257,1.3174339532852173,1.4635862112045288,-1.1370431184768677,-0.005847661755979061,-0.0034207345452159643,26.46,0.0,0.14,1.1,0.0,0.18,0.0,0.0
3.6553596000012476,0,0,0,0,1,65,8012135,3.184572219848633,1.0530776977539062,1.2934013605117798,1.7920862436294556,-1.1166232824325562,-0.0036367522552609444,0.005235292948782444,26.46,0.03,0.13,1.11,0.05,0.05,0.0,0.0
3.6917257999884896,0,0,0,0,1,65,8012172,3.1773593425750732,1.1648025512695312,1.2614434957504272,2.1755530834198,-1.0298032760620117,-0.002794769359752536,0.0010652339551597834,26.46,0.0,0.13,1.06,0.01,0.0,0.0,0.23
3.7228015000000596,0,0,0,0,1,65,8012203,3.167309284210205,1.2560744285583496,1.2302526235580444,2.3948051929473877,-1.0125799179077148,-0.0042040697298944,0.0010059191845357418,26.46,0.16,0.15,0.9400000000000001,0.0,0.0,0.0,0.23
3.7532766000076663,0,0,0,0,1,65,8012233,3.158719062805176,1.3366085290908813,1.1967607736587524,2.4805586338043213,-1.0363249778747559,-0.006892922334372997,0.0011008488945662975,26.46,0.06,0.19,0.85,0.0,0.0,0.0,0.15
3.7842143999878317,0,0,0,0,1,65,8012264,3.153059244155884,1.4056376218795776,1.1602007150650024,2.4173779487609863,-1.073813796043396,-0.005273327697068453,-0.005646561738103628,26.48,0.08,0.14,0.8,0.0,0.0,0.0,0.08
3.8153864000050817,0,0,0,0,1,65,8012295,3.150041103363037,1.460605263710022,1.1218513250350952,2.2454171180725098,-1.1171931028366089,-0.0017530721379444003,0.0007133830804377794,26.48,0.01,0.12,0.8300000000000001,0.0,0.0,0.0,0.04
3.8469607000006363,0,0,0,0,1,65,8012327,3.1475682258605957,1.5043236017227173,1.0819679498672485,1.996559739112854,-1.1564278602600098,-0.007206916809082031,-0.01145174540579319,26.46,0.0,0.1,0.9,0.03,0.0,0.0,0.05
3.8714471999846864,0,0,0,0,1,65,8012352,3.1457736492156982,1.527333378791809,1.0525665283203125,1.7559292316436768,-1.1633398532867432,-0.010295087471604347,-0.007242420222610235,26.46,0.0,0.07,0.93,0.02,0.0,0.0,0.1
3.908770200010622,0,0,0,0,1,65,8012389,3.140288829803467,1.5421619415283203,1.0175405740737915,1.3305870294570923,-1.1004623174667358,-0.0037445821799337864,0.00022952869767323136,26.46,0.0,0.04,0.96,0.06,0.0,0.0,0.24
3.940424600004917,0,0,0,0,1,65,8012421,3.131769895553589,1.541394829750061,0.9942750930786133,0.9444848895072937,-0.9938091039657593,-0.009355397894978523,-0.007800163701176643,26.46,0.11,0.0,0.96,0.1,0.03,0.0,0.46
3.965375400002813,0,0,0,0,1,65,8012446,3.1201224327087402,1.5390939712524414,0.9799582362174988,0.7034689784049988,-0.9002926349639893,0.006347897462546825,-0.004624527413398027,26.48,0.12,0.03,0.89,0.14,0.17,0.0,0.59
4.002394200011622,0,0,0,0,1,65,8012483,3.100517749786377,1.5250324010849,0.9646183848381042,0.3653397858142853,-0.7440899014472961,0.006892165634781122,0.004579712171107531,26.46,0.12,0.09,0.92,0.08,0.31,0.0,0.5
4.033415199985029,0,0,0,0,1,65,8012514,3.088968515396118,1.503556728363037,0.9523465037345886,0.0758437067270279,-0.6409255862236023,0.003430311568081379,-0.0034586451947689056,26.46,0.0,0.14,0.91,0.0,0.26,0.0,0.25
4.064158499997575,0,0,0,0,1,65,8012544,3.0855917930603027,1.4831037521362305,0.9344501495361328,-0.13631917536258698,-0.6204832196235657,0.0080012371763587,0.002368172165006399,26.48,0.03,0.17,0.93,0.0,0.14,0.0,0.0
4.094297600007849,0,0,0,0,1,65,8012574,3.090581178665161,1.4726214408874512,0.9088837504386902,-0.20747631788253784,-0.678692638874054,-0.006047779694199562,0.003631552215665579,26.48,0.08,0.08,1.03,0.0,0.06,0.0,0.0
4.125596199999563,0,0,0,0,1,65,8012606,3.1027729511260986,1.471854567527771,0.877181351184845,-0.15744684636592865,-0.7644701600074768,-6.859138375148177e-05,0.003497079247608781,26.46,0.0,0.0,1.07,0.0,0.0,0.0,0.0
4.150122199993348,0,0,0,0,1,65,8012630,3.1140568256378174,1.471854567527771,0.8557055592536926,-0.11785771697759628,-0.799563467502594,-0.0017781255301088095,0.0014353482984006405,26.46,0.06,0.0,1.04,0.08,0.0,0.0,0.0
4.187449699995341,0,0,0,0,1,65,8012668,3.124847412109375,1.4703203439712524,0.8319289088249207,-0.08776336163282394,-0.7512690424919128,-0.0028049920219928026,-0.0002524364972487092,26.46,0.0,0.0,1.22,0.04,0.0,0.0,0.05
4.2186170000059064,0,0,0,0,1,65,8012699,3.1236279010772705,1.4613722562789917,0.8303950428962708,-0.1273140013217926,-0.5744056701660156,0.005528816021978855,0.022144917398691177,26.46,0.0,0.17,0.88,0.0,0.0,0.0,0.0
4.249409299984109,0,0,0,0,1,65,8012730,3.1316776275634766,1.4375954866409302,0.8390874862670898,-0.2961239814758301,-0.3397156298160553,-0.0034982915967702866,0.018800819292664528,26.46,0.12,0.23,0.91,0.0,0.0,0.0,0.0
4.280493700003717,0,0,0,0,1,65,8012761,3.14518666267395,1.4076828956604004,0.8572397232055664,-0.4790683686733246,-0.0903925746679306,0.0021218659821897745,0.010648910887539387,26.46,0.01,0.43,0.92,0.0,0.0,0.0,0.0
4.311357300000964,0,0,0,0,1,65,8012791,3.1587424278259277,1.3736796379089355,0.8935438990592957,-0.6534572839736938,0.23792479932308197,0.0032930378802120686,-0.0004472638829611242,26.46,0.08,0.43,1.07,0.0,0.0,0.17,0.0
4.342407599993749,0,0,0,0,1,65,8012823,3.175544500350952,1.337375521659851,0.9597606658935547,-0.7953344583511353,0.7342280149459839,0.0032597172539681196,0.005872044712305069,26.48,0.08,0.23,1.1400000000000001,0.06,0.0,0.3,0.0
4.367196200008038,0,0,0,0,1,65,8012847,3.182464838027954,1.3176894187927246,1.0262333154678345,-0.8117750287055969,1.1755094528198242,-0.00041167321614921093,0.0041894069872796535,26.44,0.09,0.15,1.2,0.05,0.08,0.31,0.0
4.4055922999978065,0,0,0,0,1,65,8012886,3.1781013011932373,1.3046506643295288,1.1479288339614868,-0.6617015600204468,1.8238474130630493,-0.000635074102319777,-0.0002731982385739684,26.46,0.0,0.15,1.11,0.0,0.26,0.23,0.28
4.436490099993534,0,0,0,0,1,65,8012917,3.1647329330444336,1.3038835525512695,1.2540292739868164,-0.48436227440834045,2.255220651626587,0.005890600383281708,0.0022445269860327244,26.46,0.0,0.1,1.08,0.0,0.25,0.18,0.51
4.467215699987719,0,0,0,0,1,65,8012947,3.1478476524353027,1.2941683530807495,1.360129714012146,-0.4200054109096527,2.60359263420105,0.007055247202515602,-0.0002025281428359449,26.44,0.12,0.15,1.0,0.0,0.23,0.13,0.5
4.49789579998469,0,0,0,0,1,65,8012978,3.132754325866699,1.2683463096618652,1.4590715169906616,-0.5187872052192688,2.7833030223846436,0.007907908409833908,0.002236440312117338,26.48,0.0,0.25,0.81,0.0,0.11,0.03,0.35000000000000003
4.528767599986168,0,0,0,0,1,65,8013009,3.1235945224761963,1.2289742231369019,1.5429290533065796,-0.7169091105461121,2.7746896743774414,0.001901298644952476,9.253271855413914e-07,26.44,0.03,0.17,0.8,0.0,0.07,0.04,0.15
4.559712099988246,0,0,0,0,1,65,8013040,3.119663953781128,1.181165099143982,1.6004533767700195,-0.942179799079895,2.540404796600342,-0.00573140662163496,-0.0006887296331115067,26.46,0.04,0.17,0.81,0.0,0.14,0.12,0.0
4.591148799983785,0,0,0,0,1,65,8013071,3.120401620864868,1.1310549974441528,1.6334339380264282,-1.1305904388427734,2.138369083404541,0.00038454687455669045,0.001503098988905549,26.48,0.0,0.09,0.9,0.0,0.2,0.26,0.0
4.622421000007307,0,0,0,0,1,65,8013103,3.122467517852783,1.0796667337417603,1.648006796836853,-1.2705192565917969,1.664282202720642,0.00200312165543437,0.0050522200763225555,26.46,0.03,0.06,0.88,0.0,0.22,0.35000000000000003,0.0
4.647184400004335,0,0,0,0,1,65,8013127,3.1236343383789062,1.0443850755691528,1.6490293741226196,-1.3188021183013916,1.3067138195037842,-0.005064842291176319,0.0241092536598444,26.46,0.0,0.0,0.88,0.0,0.17,0.33,0.0
4.685015700000804,0,0,0,0,1,65,8013165,3.1212122440338135,1.0022006034851074,1.6444274187088013,-1.2600923776626587,0.8348932862281799,-0.005850578658282757,0.006501851603388786,26.48,0.01,0.02,0.89,0.0,0.02,0.23,0.24
4.715978099993663,0,0,0,0,1,65,8013196,3.113842248916626,0.9817476272583008,1.6334339380264282,-1.1007689237594604,0.5118617415428162,0.0015155894216150045,-0.001874612527899444,26.46,0.0,0.0,0.9500000000000001,0.0,0.0,0.16,0.36
4.746296400000574,0,0,0,0,1,65,8013226,3.104106903076172,0.969731330871582,1.6137479543685913,-0.9112057089805603,0.20521029829978943,-0.0027105440385639668,0.010371897369623184,26.46,0.0,0.05,0.93,0.0,0.0,0.16,0.45
4.776352599990787,0,0,0,0,1,65,8013256,3.0933964252471924,0.9549029469490051,1.5874143838882446,-0.7850471138954163,-0.0822187215089798,-0.005016489885747433,-0.0004696511896327138,26.48,0.08,0.09,0.93,0.0,0.0,0.16,0.36
4.807942599989474,0,0,0,0,1,65,8013288,3.0861570835113525,0.9249903559684753,1.558524489402771,-0.8085403442382812,-0.31901058554649353,0.004364236257970333,-0.010386941954493523,26.46,0.0,0.18,0.9,0.0,0.0,0.14,0.08
4.832327799987979,0,0,0,0,1,65,8013312,3.086315393447876,0.8904757499694824,1.5429290533065796,-0.9360902905464172,-0.40133512020111084,0.006567163392901421,0.004845838062465191,26.46,0.04,0.18,0.9500000000000001,0.0,0.0,0.11,0.0
4.869143399992026,0,0,0,0,1,65,8013349,3.096813440322876,0.8270711898803711,1.5332139730453491,-1.1841403245925903,-0.36644595861434937,0.003612012602388859,-0.009937042370438576,26.48,0.0,0.03,1.07,0.0,0.0,0.13,0.0
4.900383400003193,0,0,0,0,1,65,8013380,3.1106717586517334,0.7774724960327148,1.5327024459838867,-1.3120841979980469,-0.26777076721191406,0.0001836638548411429,-0.03649147227406502,26.46,0.06,0.02,1.12,0.0,0.0,0.21,0.0
4.931349499995122,0,0,0,0,1,65,8013411,3.119919538497925,0.7409126162528992,1.5319355726242065,-1.289145588874817,-0.19278950989246368,0.001197411329485476,-0.046077072620391846,26.46,0.01,0.1,1.2,0.03,0.01,0.21,0.0
4.961837699986063,0,0,0,0,1,65,8013442,3.1259818077087402,0.7237831950187683,1.5224758386611938,-1.102118730545044,-0.20837458968162537,-0.00626444723457098,-0.029705654829740524,26.44,0.0,0.07,1.04,0.0,0.0,0.13,0.0
4.992413900006795,0,0,0,0,1,65,8013473,3.1378519535064697,0.7248058319091797,1.5066248178482056,-0.7920383810997009,-0.2899297773838043,-0.024468176066875458,-0.003659122623503208,26.46,0.0,0.05,0.98,0.04,0.03,0.04,0.0
5.023208900005557,0,0,0,0,1,65,8013503,3.1532373428344727,0.7337539792060852,1.4869388341903687,-0.5056275129318237,-0.3788713812828064,-0.013428928330540657,-0.0015851054340600967,26.46,0.16,0.22,0.9400000000000001,0.14,0.15,0.0,0.0
5.054839999997057,0,0,0,0,1,65,8013535,3.1663782596588135,0.7736374735832214,1.4432204961776733,-0.03726404160261154,-0.6332244873046875,-0.007524991873651743,-0.0012929090298712254,26.46,0.19,0.41000000000000003,1.0,0.08,0.11,0.0,0.0
5.07924059999641,0,0,0,0,1,65,8013559,3.17337965965271,0.8240032196044922,1.4007800817489624,0.4231421947479248,-0.8887806534767151,-0.006777320522814989,0.0058886040933430195,26.48,0.03,0.3,1.11,0.0,0.11,0.0,0.0
5.1166845000116155,0,0,0,0,1,65,8013597,3.1820104122161865,0.9185986518859863,1.3435115814208984,1.0984081029891968,-1.1085749864578247,-0.004600584041327238,-0.002676091156899929,26.46,0.0,0.19,1.11,0.0,0.03,0.0,0.0
5.148416299984092,0,0,0,0,1,65,8013629,3.182997226715088,1.0045017004013062,1.3125762939453125,1.5455198287963867,-1.0775679349899292,-0.0014600884169340134,0.0008739387849345803,26.46,0.03,0.14,1.11,0.0,0.0,0.0,0.04
5.1731265999842435,0,0,0,0,1,65,8013653,3.1785686016082764,1.0753203630447388,1.294424057006836,1.8492300510406494,-1.004400610923767,0.0007849318790249527,0.006686943583190441,26.48,0.06,0.14,1.02,0.05,0.0,0.0,0.25
5.211587600002531,0,0,0,0,1,65,8013692,3.1625757217407227,1.1972719430923462,1.2593984603881836,2.274707078933716,-0.9558919072151184,0.0024964960757642984,-0.0029214525129646063,26.46,0.0,0.21,0.93,0.01,0.0,0.0,0.38
5.242319399985718,0,0,0,0,1,65,8013722,3.1498866081237793,1.2867541313171387,1.2297414541244507,2.4716262817382812,-0.9638652801513672,-0.0005509185139089823,-0.0054288520477712154,26.46,0.09,0.21,0.85,0.0,0.0,0.0,0.31
5.273515300010331,0,0,0,0,1,65,8013754,3.139805555343628,1.365242838859558,1.1995731592178345,2.4781365394592285,-0.9583455324172974,0.003192368894815445,-0.003155236132442951,26.46,0.08,0.14,0.87,0.0,0.0,0.0,0.2
5.298309999983758,0,0,0,0,1,65,8013778,3.134307622909546,1.4140745401382446,1.1757961511611938,2.3825507164001465,-0.9601256251335144,-0.006720129866153002,-0.0037994165904819965,26.46,0.0,0.13,0.85,0.0,0.0,0.0,0.16
5.334368899988476,0,0,0,0,1,65,8013814,3.127908706665039,1.4744110107421875,1.1346343755722046,2.166459321975708,-1.0114880800247192,-0.00530238077044487,-0.0024529004003852606,26.48,0.08,0.14,0.85,0.04,0.0,0.0,0.14
5.354163799987873,0,0,0,0,1,65,8013834,3.124795436859131,1.5002330541610718,1.1100908517837524,2.006044864654541,-1.0514696836471558,-0.007016449235379696,-0.0030493447557091713,26.46,0.0,0.14,0.85,0.04,0.0,0.0,0.1
5.379601399996318,0,0,0,0,1,65,8013860,3.1214921474456787,1.5242654085159302,1.0788997411727905,1.7599964141845703,-1.0893652439117432,-0.009095105342566967,0.0011972200591117144,26.490000000000002,0.01,0.14,0.89,0.02,0.0,0.01,0.12
5.411307900008978,0,0,0,0,1,65,8013891,3.116760015487671,1.5401166677474976,1.044129729270935,1.416878581047058,-1.0997892618179321,-0.010049169883131981,0.002160309813916683,26.48,0.09,0.08,0.92,0.03,0.0,0.02,0.2
5.442308800003957,0,0,0,0,1,65,8013922,3.1106343269348145,1.5431846380233765,1.0131944417953491,1.0536167621612549,-1.0732263326644897,-0.015365183353424072,2.447252336423844e-05,26.48,0.0,0.02,0.93,0.1,0.06,0.0,0.28
5.472626700007822,0,0,0,0,1,65,8013953,3.101306676864624,1.5431846380233765,0.9843044281005859,0.7549768686294556,-1.033780574798584,-0.019702067598700523,0.00529831275343895,26.46,0.09,0.09,0.91,0.1,0.19,0.0,0.41000000000000003
5.504392800008645,0,0,0,0,1,65,8013984,3.0891358852386475,1.5401166677474976,0.9587380290031433,0.5205877423286438,-0.9789012670516968,-0.011305254884064198,-0.0007929459679871798,26.48,0.14,0.1,0.93,0.09,0.28,0.0,0.41000000000000003
5.5356511999852955,0,0,0,0,1,65,8014016,3.078321695327759,1.5293787717819214,0.940074622631073,0.2845703363418579,-0.8732743263244629,0.005131261423230171,0.004247511271387339,26.46,0.0,0.11,0.93,0.07,0.25,0.0,0.32
5.560165900009451,0,0,0,0,1,65,8014040,3.0729269981384277,1.5168513059616089,0.9298480153083801,0.10855177044868469,-0.7733209133148193,-0.00046736898366361856,0.0056481813080608845,26.46,0.0,0.1,0.9500000000000001,0.04,0.22,0.0,0.21
5.5978646999865305,0,0,0,0,1,65,8014078,3.070688009262085,1.4986991882324219,0.9124628901481628,-0.09085770696401596,-0.6635593771934509,0.00020043295808136463,0.0001982311950996518,26.48,0.09,0.07,1.0,0.0,0.12,0.0,0.01
5.6288583999848925,0,0,0,0,1,65,8014109,3.0742580890655518,1.492563247680664,0.8922656178474426,-0.12985821068286896,-0.6523703932762146,0.003032536478713155,-0.005525394342839718,26.48,0.09,0.0,1.01,0.0,0.09,0.0,0.0
5.659552500001155,0,0,0,0,1,65,8014140,3.0816054344177246,1.4923075437545776,0.8687445521354675,-0.09460867196321487,-0.6803742051124573,-0.0016692798817530274,0.0028451045509427786,26.48,0.0,0.0,1.02,0.05,0.11,0.0,0.0
5.690630600001896,0,0,0,0,1,65,8014171,3.0882809162139893,1.4920517206192017,0.8472687602043152,-0.06672488152980804,-0.6883403658866882,-0.0052851843647658825,-0.004684147424995899,26.48,0.0,0.09,1.09,0.07,0.1,0.0,0.0
5.72206770000048,0,0,0,0,1,65,8014202,3.090989828109741,1.4831037521362305,0.8372980952262878,-0.11341368407011032,-0.6048035025596619,-0.0031186139676719904,0.014537645503878593,26.48,0.11,0.21,1.02,0.0,0.0,0.0,0.0
5.752296899998328,0,0,0,0,1,65,8014232,3.1005330085754395,1.460349678993225,0.8406216502189636,-0.2757174074649811,-0.4176461100578308,0.0010691789211705327,0.020079603418707848,26.46,0.01,0.27,0.9,0.0,0.0,0.0,0.0
5.783599999995204,0,0,0,0,1,65,8014264,3.1197590827941895,1.429669976234436,0.853404700756073,-0.4661712050437927,-0.19648441672325134,-0.005286866333335638,0.00030037006945349276,26.46,0.06,0.45,0.99,0.0,0.0,0.0,0.0
5.8083336999989115,0,0,0,0,1,65,8014288,3.1332173347473145,1.4000129699707031,0.8789710998535156,-0.6285645961761475,0.059304460883140564,-0.004103630315512419,0.001144816749729216,26.48,0.12,0.41000000000000003,1.07,0.0,0.0,0.15,0.0
5.845540799986338,0,0,0,0,1,65,8014326,3.1543095111846924,1.347090721130371,0.9618059992790222,-0.8818968534469604,0.7194971442222595,0.0005378159694373608,0.0024611721746623516,26.48,0.11,0.21,1.1500000000000001,0.09,0.0,0.21,0.0
5.877225700009149,0,0,0,0,1,65,8014357,3.1619505882263184,1.3148770332336426,1.0566571950912476,-0.9439101815223694,1.363268494606018,0.003988457378000021,0.00597124919295311,26.46,0.0,0.13,1.17,0.11,0.03,0.1,0.0
5.907152200001292,0,0,0,0,1,65,8014387,3.1573281288146973,1.2987703084945679,1.153042197227478,-0.8437602519989014,1.8741636276245117,-0.007795441430062056,-0.0012785535072907805,26.46,0.0,0.17,1.11,0.0,0.15,0.03,0.25
5.938105100009125,0,0,0,0,1,65,8014418,3.1458442211151123,1.2895663976669312,1.2586313486099243,-0.6864937543869019,2.287400722503662,-0.003287959611043334,-0.000617407145909965,26.48,0.11,0.17,1.02,0.0,0.18,0.07,0.39
5.969107199984137,0,0,0,0,1,65,8014449,3.13199782371521,1.2737153768539429,1.3621749877929688,-0.6219223141670227,2.587993621826172,-0.0015123344492167234,-0.0052794660441577435,26.48,0.01,0.2,0.93,0.0,0.22,0.15,0.35000000000000003
6.000429500010796,0,0,0,0,1,65,8014481,3.120467185974121,1.2453365325927734,1.4557479619979858,-0.6850587129592896,2.6925806999206543,0.005453256890177727,-0.008687037974596024,26.46,0.0,0.23,0.8300000000000001,0.0,0.21,0.19,0.19
6.025340499996673,0,0,0,0,1,65,8014505,3.115468978881836,1.2169580459594727,1.5158287286758423,-0.7887470126152039,2.65600848197937,0.005372889339923859,-0.009667720645666122,26.46,0.01,0.2,0.81,0.0,0.24,0.21,0.11
6.062421399983577,0,0,0,0,1,65,8014543,3.1120336055755615,1.1648025512695312,1.5853691101074219,-0.9797897934913635,2.3984358310699463,0.008070431649684906,-0.0015620328485965729,26.48,0.0,0.17,0.8,0.0,0.23,0.22,0.0
6.093345000001136,0,0,0,0,1,65,8014573,3.113741397857666,1.11929452419281,1.6193723678588867,-1.1209712028503418,2.0664737224578857,0.004497602116316557,-0.004735840484499931,26.46,0.0,0.13,0.89,0.0,0.17,0.24,0.0
6.125223699986236,0,0,0,0,1,65,8014605,3.116788625717163,1.0714855194091797,1.641103744506836,-1.233228325843811,1.672519326210022,0.007074728142470121,0.0032920227386057377,26.46,0.0,0.07,0.9500000000000001,0.0,0.11,0.21,0.0
6.14934559998801,0,0,0,0,1,65,8014629,3.118415594100952,1.0390162467956543,1.6474953889846802,-1.2641762495040894,1.367844820022583,0.0031340233981609344,-0.0016140569932758808,26.48,0.0,0.07,0.97,0.0,0.04,0.2,0.0
6.1884725999843795,0,0,0,0,1,65,8014669,3.114912271499634,0.9981099963188171,1.6477512121200562,-1.190811038017273,0.8985419273376465,-5.243835039436817e-05,0.026634011417627335,26.46,0.08,0.0,0.96,0.0,0.0,0.2,0.3
6.218912000011187,0,0,0,0,1,65,8014699,3.104863166809082,0.9786796569824219,1.646728515625,-1.0501079559326172,0.6479968428611755,0.0008047876763157547,0.032610248774290085,26.46,0.04,0.03,0.92,0.0,0.0,0.22,0.52
6.248917299992172,0,0,0,0,1,65,8014729,3.0900416374206543,0.9674304127693176,1.636757493019104,-0.8707768321037292,0.3933422267436981,0.006069899536669254,0.009327918291091919,26.46,0.11,0.06,0.92,0.0,0.0,0.26,0.5700000000000001
6.280380999989575,0,0,0,0,1,65,8014761,3.0741121768951416,0.9561812281608582,1.6134921312332153,-0.7152991890907288,0.08565273880958557,-0.004059521481394768,0.0024508934002369642,26.46,0.04,0.11,0.86,0.0,0.0,0.31,0.42
6.305330200004391,0,0,0,0,1,65,8014785,3.066459894180298,0.9405857920646667,1.5925277471542358,-0.6856989860534668,-0.12624672055244446,-0.00414617732167244,-3.616925096139312e-05,26.48,0.0,0.14,0.8300000000000001,0.03,0.0,0.3,0.2
6.342456599988509,0,0,0,0,1,65,8014823,3.067255973815918,0.8971230387687683,1.5636377334594727,-0.8199940919876099,-0.34446629881858826,-0.0045485529117286205,0.0012461504666134715,26.46,0.0,0.19,0.85,0.09,0.0,0.22,0.0
6.373809899989283,0,0,0,0,1,65,8014854,3.079122304916382,0.8490583300590515,1.5523885488510132,-1.0160517692565918,-0.36141446232795715,-0.008237338624894619,0.00042550399666652083,26.48,0.0,0.0,1.09,0.0,0.0,0.2,0.0
6.404506699997,0,0,0,0,1,65,8014885,3.0947892665863037,0.799970805644989,1.5521329641342163,-1.1793066263198853,-0.26391711831092834,0.001249804045073688,-0.015930073335766792,26.48,0.12,0.0,1.1400000000000001,0.0,0.0,0.25,0.0
6.4355995999940205,0,0,0,0,1,65,8014916,3.105836868286133,0.7600873112678528,1.5495762825012207,-1.2232182025909424,-0.20224738121032715,0.002963016973808408,-0.0216816533356905,26.48,0.0,0.06,1.17,0.1,0.0,0.24,0.0
6.466636299999664,0,0,0,0,1,65,8014947,3.112614870071411,0.7375890612602234,1.536537528038025,-1.1041193008422852,-0.24688079953193665,-0.004456115886569023,0.0019350697984918952,26.46,0.0,0.12,1.1,0.01,0.0,0.2,0.0
6.497828199993819,0,0,0,0,1,65,8014978,3.1224915981292725,0.7350323796272278,1.5155730247497559,-0.8320735692977905,-0.3638480007648468,-0.0008675457793287933,0.00010093522723764181,26.46,0.06,0.24,1.0,0.07,0.04,0.1,0.0
6.529378200008068,0,0,0,0,1,65,8015009,3.1417629718780518,0.7388672828674316,1.4930747747421265,-0.5658154487609863,-0.46127375960350037,0.009335929527878761,3.1073461286723614e-05,26.48,0.03,0.18,1.09,0.16,0.18,0.0,0.0
6.560306400002446,0,0,0,0,1,65,8015040,3.162606716156006,0.7672459483146667,1.4583044052124023,-0.1849733591079712,-0.6281638741493225,0.007706138771027327,-0.0006366514717228711,26.48,0.17,0.24,0.9400000000000001,0.04,0.11,0.0,0.0
6.590400599990971,0,0,0,0,1,65,8015070,3.175867795944214,0.8268154263496399,1.410495400428772,0.3726705312728882,-0.8803945779800415,0.006142989732325077,0.0004936645273119211,26.46,0.0,0.27,1.04,0.0,0.06,0.0,0.0
6.6215755000011995,0,0,0,0,1,65,8015102,3.1828079223632812,0.9142524600028992,1.3603852987289429,1.0328282117843628,-1.0899081230163574,-0.0007282145088538527,9.685731492936611e-05,26.48,0.0,0.16,1.1500000000000001,0.0,0.06,0.0,0.0
6.646453199995449,0,0,0,0,1,65,8015127,3.183772563934326,0.9909515380859375,1.3304725885391235,1.5033928155899048,-1.1283231973648071,-0.0032888692803680897,0.0032120859250426292,26.48,0.04,0.17,1.1400000000000001,0.0,0.04,0.0,0.0
6.6837747000099625,0,0,0,0,1,65,8015164,3.1776282787323,1.1085567474365234,1.30158269405365,2.0403430461883545,-1.022022008895874,0.000229405501158908,-0.0026639020070433617,26.46,0.11,0.14,0.99,0.07,0.0,0.0,0.23
6.714535100007197,0,0,0,0,1,65,8015195,3.166609287261963,1.2064757347106934,1.2824081182479858,2.3503475189208984,-0.9031428098678589,-0.007810293696820736,-0.005207718815654516,26.46,0.0,0.21,0.9500000000000001,0.01,0.0,0.0,0.35000000000000003
6.746406299993396,0,0,0,0,1,65,8015226,3.1537702083587646,1.2997928857803345,1.2596540451049805,2.5337910652160645,-0.8474119305610657,-0.006041565909981728,0.0006246085977181792,26.44,0.08,0.21,0.86,0.0,0.0,0.0,0.34
6.777796399983345,0,0,0,0,1,65,8015258,3.1431024074554443,1.3836504220962524,1.2310196161270142,2.566227912902832,-0.8523910045623779,-0.002259240485727787,-0.0010002331109717488,26.48,0.09,0.14,0.87,0.0,0.0,0.0,0.22
6.802283600001829,0,0,0,0,1,65,8015282,3.1376214027404785,1.435294508934021,1.206220269203186,2.4839227199554443,-0.8871148824691772,-0.006245717406272888,0.0011985339224338531,26.46,0.01,0.14,0.84,0.0,0.0,0.0,0.14
6.840255999995861,0,0,0,0,1,65,8015320,3.1322641372680664,1.4989547729492188,1.1599451303482056,2.2212445735931396,-0.9909787178039551,0.0031714970245957375,-0.0016982770757749677,26.46,0.06,0.11,0.8300000000000001,0.0,0.0,0.0,0.08
6.871677799994359,0,0,0,0,1,65,8015352,3.1297454833984375,1.5347477197647095,1.1157153844833374,1.9162718057632446,-1.0993841886520386,-0.0028523621149361134,0.001373833860270679,26.46,0.09,0.14,0.89,0.05,0.0,0.0,0.05
6.896505699987756,0,0,0,0,1,65,8015377,3.1282737255096436,1.5505987405776978,1.0819679498672485,1.629807949066162,-1.1605421304702759,-0.003963095601648092,-0.003084497759118676,26.46,0.12,0.1,0.9400000000000001,0.06,0.0,0.01,0.04
6.934590199991362,0,0,0,0,1,65,8015415,3.1266579627990723,1.554433822631836,1.0374822616577148,1.1325962543487549,-1.1709232330322266,0.009872517548501492,0.00392541941255331,26.44,0.16,0.0,0.96,0.07,0.0,0.0,0.15
6.965563600009773,0,0,0,0,1,65,8015446,3.120344638824463,1.5541781187057495,1.0101264715194702,0.8070932030677795,-1.0988126993179321,0.001515981275588274,-0.0004930028226226568,26.46,0.0,0.0,0.92,0.09,0.08,0.0,0.42
6.996405299985781,0,0,0,0,1,65,8015477,3.1071066856384277,1.552899718284607,0.9922297596931458,0.5723039507865906,-0.9583173990249634,-0.0006966741057112813,-0.0007205712608993053,26.46,0.09,0.06,0.92,0.1,0.22,0.0,0.56
7.027882299997145,0,0,0,0,1,65,8015508,3.091564178466797,1.544718623161316,0.9802138209342957,0.3474441170692444,-0.798288106918335,0.003256292315199971,0.002725883387029171,26.48,0.06,0.09,0.93,0.07,0.24,0.0,0.54
7.058587200008333,0,0,0,0,1,65,8015539,3.0781099796295166,1.5316797494888306,0.9661521911621094,0.13730120658874512,-0.6929098963737488,0.002671242691576481,0.006409679539501667,26.48,0.06,0.12,0.91,0.07,0.21,0.0,0.39
7.089609399990877,0,0,0,0,1,65,8015570,3.0704805850982666,1.5183852910995483,0.9433981776237488,-0.02151857316493988,-0.6923384666442871,-0.0013092330191284418,-0.009114185348153114,26.46,0.0,0.15,0.9400000000000001,0.0,0.14,0.0,0.12
7.119980699993903,0,0,0,0,1,65,8015600,3.071547746658325,1.510459542274475,0.9119517207145691,-0.09364418685436249,-0.7802954316139221,0.0014466466382145882,-0.002592844655737281,26.48,0.0,0.12,0.96,0.0,0.08,0.0,0.0
7.150549799989676,0,0,0,0,1,65,8015631,3.080380439758301,1.5061134099960327,0.8764145970344543,-0.10604041814804077,-0.8841229677200317,-0.006841142196208239,-0.00310589000582695,26.48,0.12,0.0,1.05,0.0,0.08,0.0,0.0
7.181383899995126,0,0,0,0,1,65,8015661,3.0911078453063965,1.5043236017227173,0.8459904789924622,-0.09347622841596603,-0.9263244271278381,0.007080502808094025,-0.00013664714060723782,26.48,0.11,0.0,1.12,0.1,0.03,0.0,0.0
7.213733999989927,0,0,0,0,1,65,8015694,3.0964834690093994,1.499466061592102,0.821191132068634,-0.10105354338884354,-0.8879519701004028,0.011754952371120453,0.004113261122256517,26.48,0.06,0.17,1.1400000000000001,0.0,0.0,0.0,0.0
7.237413599999854,0,0,0,0,1,65,8015717,3.1002042293548584,1.4894952774047852,0.8109645843505859,-0.16282793879508972,-0.79936683177948,0.0033721011132001877,0.004556423518806696,26.46,0.0,0.14,1.03,0.0,0.0,0.0,0.0
7.275487799983239,0,0,0,0,1,65,8015756,3.113624334335327,1.4634175300598145,0.8124987483024597,-0.3252420127391815,-0.5274052023887634,-0.00020775338634848595,0.0074996426701545715,26.46,0.08,0.28,0.91,0.0,0.01,0.0,0.0
7.307480799994664,0,0,0,0,1,65,8015788,3.123873472213745,1.424045443534851,0.8357639312744141,-0.5633364319801331,-0.1948929727077484,-0.001056320033967495,0.0009234488243237138,26.48,0.01,0.5700000000000001,0.9500000000000001,0.0,0.0,0.05,0.0
7.33228770000278,0,0,0,0,1,65,8015812,3.1359596252441406,1.37930428981781,0.8787155151367188,-0.8362654447555542,0.21505212783813477,-0.0010242307325825095,0.004923147615045309,26.46,0.06,0.41000000000000003,1.01,0.0,0.0,0.21,0.0
7.3693260999862105,0,0,0,0,1,65,8015849,3.1561052799224854,1.3112977743148804,0.9797026515007019,-1.1775681972503662,1.0067042112350464,-0.004445255734026432,0.0035854880698025227,26.46,0.0,0.15,1.0,0.1,0.0,0.22,0.0
7.399865099985618,0,0,0,0,1,65,8015880,3.163911819458008,1.278572916984558,1.0742979049682617,-1.1730282306671143,1.5864061117172241,-0.0035944117698818445,-0.0010745342588052154,26.48,0.0,0.1,1.06,0.08,0.1,0.17,0.0
7.431146099988837,0,0,0,0,1,65,8015911,3.159574031829834,1.267579436302185,1.1665925979614258,-0.9528472423553467,1.9702128171920776,0.003285969141870737,-0.002210862236097455,26.46,0.0,0.12,1.07,0.0,0.25,0.21,0.25
7.461963400011882,0,0,0,0,1,65,8015942,3.148071527481079,1.2573528289794922,1.2673238515853882,-0.7612943649291992,2.3078458309173584,0.005918340757489204,-0.005539195146411657,26.46,0.0,0.2,1.04,0.0,0.29,0.3,0.34
7.494182700000238,0,0,0,0,1,65,8015974,3.1353025436401367,1.2330647706985474,1.3734241724014282,-0.7418481111526489,2.6004602909088135,0.0055380817502737045,-0.002131279092282057,26.48,0.0,0.26,0.92,0.0,0.21,0.28,0.26
7.518634699983522,0,0,0,0,1,65,8015999,3.1280200481414795,1.2067314386367798,1.4462881088256836,-0.8096866011619568,2.6841766834259033,0.004561091307550669,-0.00444002402946353,26.48,0.0,0.17,0.86,0.0,0.16,0.22,0.12
7.5557104999898,0,0,0,0,1,65,8016036,3.1224958896636963,1.163012981414795,1.5347477197647095,-0.9284777641296387,2.6008238792419434,0.002938320394605398,-0.012403532862663269,26.48,0.0,0.14,0.87,0.0,0.19,0.19,0.03
7.586743199994089,0,0,0,0,1,65,8016067,3.1208720207214355,1.1244077682495117,1.5846022367477417,-1.0147452354431152,2.3398725986480713,-0.0009088122751563787,-0.00424930127337575,26.46,0.0,0.13,0.91,0.0,0.19,0.22,0.0
7.617842200008454,0,0,0,0,1,65,8016098,3.120577096939087,1.082990288734436,1.6168159246444702,-1.1017290353775024,1.9825507402420044,-0.0033128727227449417,-0.0017565784510225058,26.46,0.0,0.12,0.92,0.0,0.15,0.25,0.0
7.649306200008141,0,0,0,0,1,65,8016129,3.119581460952759,1.0405502319335938,1.6354793310165405,-1.1763904094696045,1.6018069982528687,0.00403075385838747,-0.006151852197945118,26.46,0.06,0.09,0.92,0.0,0.07,0.25,0.07
7.6808059999893885,0,0,0,0,1,65,8016161,3.1155660152435303,1.0001553297042847,1.639825463294983,-1.205928087234497,1.1931475400924683,0.005796086508780718,0.012991497293114662,26.46,0.0,0.07,0.89,0.0,0.0,0.2,0.19
7.705470899993088,0,0,0,0,1,65,8016186,3.1102781295776367,0.9738219380378723,1.6388028860092163,-1.1740648746490479,0.9023164510726929,0.005145558621734381,0.02870340831577778,26.48,0.11,0.0,0.88,0.0,0.0,0.18,0.35000000000000003
7.742299300007289,0,0,0,0,1,65,8016222,3.0964760780334473,0.9479999542236328,1.6321555376052856,-1.039278268814087,0.5643326640129089,0.004808343946933746,0.0009261681698262691,26.48,0.01,0.03,0.9,0.0,0.0,0.2,0.49
7.762420999992173,0,0,0,0,1,65,8016243,3.086390733718872,0.9387960433959961,1.6221847534179688,-0.92537522315979,0.3684759736061096,0.002238188637420535,0.007580493576824665,26.48,0.12,0.12,0.89,0.0,0.0,0.24,0.51
7.788651499984553,0,0,0,0,1,65,8016269,3.074209690093994,0.9298478960990906,1.6040326356887817,-0.7843394875526428,0.1206081435084343,0.0006898065330460668,0.00433714035898447,26.46,0.0,0.13,0.87,0.0,0.0,0.33,0.39
7.819588399986969,0,0,0,0,1,65,8016300,3.065659761428833,0.9142524600028992,1.5794888734817505,-0.6943859457969666,-0.13058345019817352,0.0011534672230482101,-0.0006439280696213245,26.46,0.0,0.17,0.92,0.05,0.0,0.39,0.14
7.8503456999897026,0,0,0,0,1,65,8016330,3.064732313156128,0.8912426829338074,1.5595470666885376,-0.7062469124794006,-0.2842944860458374,0.0010444949148222804,-0.007422855123877525,26.48,0.08,0.1,1.04,0.1,0.02,0.36,0.0
7.8823788999870885,0,0,0,0,1,65,8016362,3.0716354846954346,0.8592846989631653,1.5490649938583374,-0.7840756773948669,-0.3065650165081024,0.002794267376884818,-0.0060637230053544044,26.46,0.0,0.0,1.1,0.03,0.05,0.27,0.0
7.906886699987808,0,0,0,0,1,65,8016387,3.0784614086151123,0.8334627151489258,1.5480422973632812,-0.8471140265464783,-0.2446279078722,-0.00011223663022974506,-0.0031314792577177286,26.48,0.06,0.1,1.17,0.0,0.05,0.17,0.0
7.944289300008677,0,0,0,0,1,65,8016424,3.085827112197876,0.8035500645637512,1.5459970235824585,-0.8434003591537476,-0.173871248960495,0.0044660307466983795,0.01357042882591486,26.46,0.01,0.07,1.17,0.0,0.07,0.0,0.0
7.975591900001746,0,0,0,0,1,65,8016456,3.091600179672241,0.798692524433136,1.532191276550293,-0.6675300598144531,-0.2302437424659729,0.006546040531247854,0.0018909876234829426,26.46,0.01,0.14,0.96,0.0,0.0,0.0,0.0
8.00047130000894,0,0,0,0,1,65,8016481,3.1006741523742676,0.8002265095710754,1.5160843133926392,-0.4936351180076599,-0.3238130807876587,0.00019516493193805218,0.004902566783130169,26.48,0.06,0.17,0.93,0.0,0.0,0.0,0.0
8.037711299984949,0,0,0,0,1,65,8016518,3.120032787322998,0.8188899159431458,1.4769678115844727,-0.19217190146446228,-0.5397384166717529,-0.004899797961115837,0.001890942919999361,26.46,0.0,0.41000000000000003,0.9400000000000001,0.07,0.08,0.0,0.0
8.068829800002277,0,0,0,0,1,65,8016549,3.1366794109344482,0.8651650547981262,1.4268579483032227,0.24556678533554077,-0.8309259414672852,-0.004624425899237394,0.004485266283154488,26.46,0.0,0.3,0.9,0.0,0.15,0.0,0.0
8.100908599997638,0,0,0,0,1,65,8016581,3.151224374771118,0.9387960433959961,1.3744468688964844,0.8160139918327332,-1.0727519989013672,-0.00760811660438776,0.005783669650554657,26.46,0.0,0.17,1.09,0.0,0.13,0.06,0.0
8.125414399983129,0,0,0,0,1,65,8016605,3.1575493812561035,1.0039902925491333,1.3455568552017212,1.2343412637710571,-1.1200239658355713,-0.002636940451338887,0.004338104277849197,26.48,0.12,0.14,1.1400000000000001,0.0,0.06,0.11,0.0
8.16243920000852,0,0,0,0,1,65,8016643,3.157180070877075,1.1175049543380737,1.320501685142517,1.8011094331741333,-0.9774981141090393,0.0022331185173243284,0.0073168640956282616,26.46,0.01,0.08,1.03,0.14,0.0,0.0,0.14
8.193636399984825,0,0,0,0,1,65,8016674,3.1490895748138428,1.2136343717575073,1.3082300424575806,2.163635015487671,-0.813005268573761,-0.001843546167947352,-0.001541860168799758,26.48,0.0,0.13,1.02,0.1,0.0,0.0,0.32
8.224271299986867,0,0,0,0,1,65,8016704,3.136984348297119,1.3061844110488892,1.290077805519104,2.41278076171875,-0.7422517538070679,-0.002403122605755925,-0.007383562624454498,26.46,0.0,0.21,0.9400000000000001,0.0,0.0,0.0,0.35000000000000003
8.255512500007171,0,0,0,0,1,65,8016736,3.12570858001709,1.3931101560592651,1.2586313486099243,2.5102081298828125,-0.7953450679779053,-0.0006862554000690579,0.0030444529838860035,26.48,0.0,0.2,0.85,0.0,0.0,0.0,0.22
8.280433500010986,0,0,0,0,1,65,8016761,3.120539903640747,1.4470552206039429,1.2271846532821655,2.4422848224639893,-0.8967886567115784,-0.00013042002683505416,-0.0007346519269049168,26.46,0.0,0.17,0.86,0.0,0.0,0.0,0.06
8.317514900001697,0,0,0,0,1,65,8016798,3.1186087131500244,1.5071359872817993,1.1717056035995483,2.182770252227783,-1.086788296699524,-0.009899157099425793,0.00281750550493598,26.46,0.0,0.15,0.87,0.01,0.0,0.0,0.0
8.349196299997857,0,0,0,0,1,65,8016829,3.118906259536743,1.5398610830307007,1.122362494468689,1.8790898323059082,-1.226706624031067,-0.005402228329330683,0.002543423790484667,26.48,0.0,0.14,0.88,0.03,0.0,0.0,0.0
8.380694699997548,0,0,0,0,1,65,8016861,3.1189138889312744,1.5600582361221313,1.0740423202514648,1.5263175964355469,-1.312882900238037,0.0015229836571961641,0.005655019078403711,26.46,0.0,0.08,0.92,0.03,0.0,0.0,0.06
8.405335299990838,0,0,0,0,1,65,8016885,3.1169538497924805,1.5664499998092651,1.04157292842865,1.250839352607727,-1.3271994590759277,0.005756034515798092,0.002612714422866702,26.46,0.0,0.03,0.9,0.03,0.0,0.0,0.16
8.441301499988185,0,0,0,0,1,65,8016921,3.109947919845581,1.5664499998092651,1.0057802200317383,0.8576796650886536,-1.2343343496322632,0.006915874779224396,-0.0007567392312921584,26.48,0.12,0.0,0.87,0.1,0.0,0.0,0.41000000000000003
8.461665000009816,0,0,0,0,1,65,8016942,3.1013498306274414,1.5656830072402954,0.992996871471405,0.6798202991485596,-1.1200518608093262,0.007263398263603449,0.0050726281479001045,26.48,0.12,0.01,0.86,0.13,0.06,0.0,0.55
8.487732100009453,0,0,0,0,1,65,8016968,3.0883989334106445,1.5572460889816284,0.9866053462028503,0.45143842697143555,-0.9193401336669922,0.009491924196481705,-0.00519862724468112,26.48,0.0,0.07,0.92,0.08,0.18,0.0,0.5700000000000001
8.518800699996063,0,0,0,0,1,65,8016999,3.0741281509399414,1.5360260009765625,0.9853270649909973,0.14590924978256226,-0.6722651124000549,0.01091652363538742,0.008488794788718224,26.48,0.04,0.07,0.9,0.02,0.22,0.0,0.44
8.550295499997446,0,0,0,0,1,65,8017030,3.064840793609619,1.5117379426956177,0.9776573181152344,-0.1158936470746994,-0.5355942249298096,0.001733160112053156,0.0018194179283455014,26.46,0.0,0.17,0.85,0.0,0.18,0.0,0.15
8.58233289999771,0,0,0,0,1,65,8017062,3.065887212753296,1.4961423873901367,0.9513238072395325,-0.23728345334529877,-0.601002037525177,0.005779989995062351,-0.0007426266674883664,26.46,0.0,0.14,0.97,0.0,0.09,0.0,0.0
8.606322699983139,0,0,0,0,1,65,8017086,3.0732133388519287,1.4930744171142578,0.9201329350471497,-0.22236037254333496,-0.7464187145233154,0.004595976322889328,-0.0005899016978219151,26.48,0.0,0.07,1.04,0.0,0.03,0.0,0.0
8.64468160000979,0,0,0,0,1,65,8017125,3.092604160308838,1.492563247680664,0.8656765818595886,-0.14600351452827454,-0.9736278653144836,-0.0014182582963258028,-0.00037506379885599017,26.48,0.16,0.0,1.1300000000000001,0.1,0.06,0.0,0.0
8.675275399989914,0,0,0,0,1,65,8017155,3.1035797595977783,1.491540551185608,0.8316733241081238,-0.10933798551559448,-1.029255747795105,-0.012237776070833206,0.00033464792068116367,26.48,0.14,0.1,1.25,0.0,0.03,0.0,0.0
8.707341300003463,0,0,0,0,1,65,8017187,3.112039089202881,1.4792686700820923,0.8163334727287292,-0.17059968411922455,-0.899429440498352,-0.008485378697514534,-0.012239901348948479,26.46,0.0,0.13,1.07,0.0,0.02,0.0,0.0
8.731410300009884,0,0,0,0,1,65,8017211,3.1233558654785156,1.4636732339859009,0.818378746509552,-0.2765823304653168,-0.6845579147338867,0.0014399124775081873,-0.027073003351688385,26.48,0.09,0.15,1.03,0.0,0.0,0.0,0.0
8.770609100000001,0,0,0,0,1,65,8017251,3.1469614505767822,1.432482361793518,0.8378092646598816,-0.4432477653026581,-0.2928205728530884,0.0016684477450326085,-0.004985298961400986,26.48,0.0,0.34,0.93,0.0,0.0,0.0,0.0
8.80150249999133,0,0,0,0,1,65,8017282,3.1634511947631836,1.3933658599853516,0.8879194259643555,-0.6533099412918091,0.1987086683511734,0.002169426530599594,-0.002518126741051674,26.46,0.0,0.33,0.92,0.0,0.0,0.06,0.0
8.83232549999957,0,0,0,0,1,65,8017312,3.174967050552368,1.346068024635315,0.9733107686042786,-0.9043130874633789,0.8801611065864563,0.0010084693785756826,-0.001215100521221757,26.46,0.01,0.21,1.1400000000000001,0.0,0.0,0.03,0.0
8.863401000009617,0,0,0,0,1,65,8017343,3.1784279346466064,1.3074628114700317,1.0801782608032227,-1.0175080299377441,1.5973414182662964,0.002128034131601453,0.0023506805300712585,26.48,0.09,0.2,1.2,0.0,0.0,0.0,0.0
8.89467209999566,0,0,0,0,1,65,8017375,3.17227840423584,1.2887994050979614,1.1870454549789429,-0.9104681611061096,2.1075949668884277,0.004225937649607658,-0.0017869834555312991,26.48,0.0,0.19,1.03,0.0,0.05,0.05,0.23
8.919419299985748,0,0,0,0,1,65,8017399,3.1639418601989746,1.281640887260437,1.2673238515853882,-0.7718526124954224,2.3806474208831787,-0.005799338687211275,-0.005768315866589546,26.48,0.06,0.19,1.03,0.0,0.16,0.13,0.34
8.95673489998444,0,0,0,0,1,65,8017437,3.1482558250427246,1.2616990804672241,1.389786720275879,-0.6708444356918335,2.652182102203369,0.002722360659390688,-0.005418786779046059,26.46,0.11,0.16,0.93,0.0,0.27,0.23,0.34
8.987662700004876,0,0,0,0,1,65,8017468,3.1367242336273193,1.2302523851394653,1.4800357818603516,-0.7523212432861328,2.7289435863494873,-0.004316978622227907,-0.009077095426619053,26.48,0.0,0.2,0.8300000000000001,0.0,0.23,0.19,0.27
9.019411199988099,0,0,0,0,1,65,8017499,3.129321813583374,1.1885792016983032,1.5552009344100952,-0.9098860025405884,2.65683650970459,-0.00017738202586770058,-0.009284303523600101,26.46,0.0,0.16,0.84,0.0,0.23,0.15,0.12
9.050201700010803,0,0,0,0,1,65,8017530,3.1257152557373047,1.1425600051879883,1.6094015836715698,-1.0698635578155518,2.4176056385040283,-0.001438528997823596,-0.00377282896079123,26.46,0.0,0.14,0.8,0.0,0.19,0.18,0.0
9.08103120001033,0,0,0,0,1,65,8017561,3.1256062984466553,1.0955177545547485,1.6431490182876587,-1.1957310438156128,2.0582022666931152,-0.0005967654869891703,-0.0002697171294130385,26.46,0.0,0.07,0.8,0.0,0.24,0.19,0.0
9.11161359999096,0,0,0,0,1,65,8017592,3.1258203983306885,1.0510324239730835,1.6597672700881958,-1.2638578414916992,1.6431375741958618,0.009120536968111992,0.002223024144768715,26.46,0.0,0.07,0.91,0.0,0.26,0.19,0.02
9.142443799995817,0,0,0,0,1,65,8017623,3.124213933944702,1.0116602182388306,1.662068247795105,-1.2696430683135986,1.2091532945632935,0.0013379156589508057,-0.022103071212768555,26.46,0.0,0.0,1.01,0.0,0.16,0.15,0.19
9.172675899986643,0,0,0,0,1,65,8017653,3.117020606994629,0.9797022938728333,1.6602786779403687,-1.219229817390442,0.8629817366600037,0.0004367810906842351,-0.029537975788116455,26.48,0.01,0.0,0.9500000000000001,0.0,0.0,0.1,0.41000000000000003
9.203768400009722,0,0,0,0,1,65,8017684,3.1043002605438232,0.9546472430229187,1.650563359260559,-1.1095800399780273,0.5459914803504944,-0.0011062845587730408,-0.0008100086124613881,26.46,0.12,0.03,0.93,0.0,0.0,0.11,0.52
9.234169400006067,0,0,0,0,1,65,8017714,3.0896799564361572,0.937262237071991,1.6288319826126099,-0.971041738986969,0.21682199835777283,-0.0038756942376494408,0.00012975384015589952,26.46,0.04,0.14,0.89,0.0,0.0,0.14,0.47000000000000003
9.265446200006409,0,0,0,0,1,65,8017746,3.077812671661377,0.9198770523071289,1.5963627099990845,-0.8421661257743835,-0.12962357699871063,0.0021281996741890907,-0.0016120336949825287,26.46,0.11,0.14,0.89,0.0,0.0,0.23,0.25
9.29053759999806,0,0,0,0,1,65,8017771,3.073824644088745,0.9030032157897949,1.5707963705062866,-0.7963681221008301,-0.341214120388031,0.005109906196594238,-2.7228306862525642e-05,26.46,0.0,0.16,0.93,0.0,0.0,0.32,0.06
9.326333300006809,0,0,0,0,1,65,8017806,3.077258348464966,0.8702783584594727,1.5488094091415405,-0.8323612213134766,-0.4440513551235199,0.0008582354057580233,-0.005645128898322582,26.46,0.12,0.08,1.04,0.0,0.0,0.43,0.0
9.347978900012095,0,0,0,0,1,65,8017828,3.0847220420837402,0.8454790115356445,1.547019600868225,-0.8877585530281067,-0.38065916299819946,-0.0010631353361532092,0.018166009336709976,26.48,0.11,0.0,1.1,0.01,0.0,0.45,0.0
9.387709800008452,0,0,0,0,1,65,8017868,3.0971951484680176,0.8071293830871582,1.5454856157302856,-0.9226675629615784,-0.2549183964729309,-0.0028257579542696476,0.03927060589194298,26.46,0.0,0.0,1.2,0.12,0.09,0.29,0.0
9.419384300010279,0,0,0,0,1,65,8017899,3.104382276535034,0.7956245541572571,1.5388383865356445,-0.7904918789863586,-0.2278725504875183,0.0029444412793964148,0.016897007822990417,26.48,0.0,0.1,1.01,0.01,0.01,0.16,0.0
9.449202799994964,0,0,0,0,1,65,8017929,3.1152820587158203,0.7981812357902527,1.5224758386611938,-0.5603442192077637,-0.3043435215950012,0.0030272738076746464,-0.0005752688739448786,26.48,0.11,0.17,1.02,0.07,0.07,0.0,0.0
9.481164400000125,0,0,0,0,1,65,8017961,3.132586717605591,0.816077709197998,1.4861717224121094,-0.2576150894165039,-0.5180805921554565,-0.0003677025670185685,0.0022085721138864756,26.46,0.0,0.24,1.03,0.13,0.14,0.0,0.0
9.505609099986032,0,0,0,0,1,65,8017986,3.147951602935791,0.8490583300590515,1.4421974420547485,0.08383313566446304,-0.7888438701629639,-0.003139206673949957,0.005392611492425203,26.46,0.0,0.32,0.91,0.0,0.14,0.0,0.0
9.543426599993836,0,0,0,0,1,65,8018023,3.1667213439941406,0.9249903559684753,1.3672882318496704,0.7011274099349976,-1.1874957084655762,-0.0026837680488824844,-0.0002900463296100497,26.48,0.0,0.27,1.06,0.0,0.09,0.0,0.0
9.574298199993791,0,0,0,0,1,65,8018054,3.1783580780029297,1.0029677152633667,1.3146215677261353,1.2005105018615723,-1.3474115133285522,-0.0034584603272378445,0.007974247448146343,26.48,0.06,0.15,1.1,0.0,0.02,0.07,0.0
9.605786300002364,0,0,0,0,1,65,8018086,3.183072805404663,1.0937281847000122,1.2726926803588867,1.6623438596725464,-1.347199559211731,-0.006535776890814304,0.0004489780985750258,26.46,0.09,0.14,1.1,0.08,0.0,0.13,0.0
9.6307577000116,0,0,0,0,1,65,8018111,3.180654525756836,1.1706829071044922,1.2466150522232056,1.9796289205551147,-1.2762924432754517,-0.0035750281531363726,-0.002223703544586897,26.46,0.01,0.11,1.0,0.17,0.0,0.05,0.18
9.667216800007736,0,0,0,0,1,65,8018147,3.1694390773773193,1.2829192876815796,1.2131229639053345,2.338719367980957,-1.1645333766937256,-0.002203727839514613,0.002596587873995304,26.46,0.0,0.17,0.9,0.07,0.0,0.0,0.3
9.687551599985454,0,0,0,0,1,65,8018168,3.1619157791137695,1.344278335571289,1.1939483880996704,2.461660385131836,-1.1090270280838013,-0.0017881665844470263,-0.006557795684784651,26.48,0.0,0.14,0.86,0.01,0.0,0.0,0.27
9.713636100001168,0,0,0,0,1,65,8018194,3.1537938117980957,1.4112621545791626,1.1714500188827515,2.5004193782806396,-1.0510488748550415,0.003170923562720418,-0.0002440284297335893,26.48,0.06,0.21,0.78,0.0,0.0,0.0,0.22
9.745507699990412,0,0,0,0,1,65,8018226,3.1466519832611084,1.4792686700820923,1.1423044204711914,2.399275064468384,-1.0041605234146118,-0.00011617084965109825,-0.006092640571296215,26.46,0.0,0.17,0.91,0.0,0.0,0.0,0.13
9.7705231999862,0,0,0,0,1,65,8018251,3.1427793502807617,1.5196634531021118,1.1190389394760132,2.2291042804718018,-0.9867252707481384,-0.0013468463439494371,-0.000801810878328979,26.46,0.0,0.07,0.9500000000000001,0.13,0.0,0.0,0.08
9.807463900011498,0,0,0,0,1,65,8018288,3.138461112976074,1.5595470666885376,1.0832462310791016,1.8630644083023071,-0.9758008122444153,0.0017111545894294977,-0.0009526824578642845,26.48,0.19,0.11,0.9400000000000001,0.07,0.0,0.0,0.1
9.838487800006988,0,0,0,0,1,65,8018319,3.1338114738464355,1.5738643407821655,1.0551233291625977,1.4846488237380981,-0.9601709842681885,0.004973860923200846,-0.0009795299265533686,26.46,0.0,0.1,0.96,0.01,0.0,0.0,0.19
9.86928889999399,0,0,0,0,1,65,8018349,3.1275179386138916,1.5759094953536987,1.0310907363891602,1.1025221347808838,-0.9219500422477722,2.9799353796988726e-05,-0.0012168025132268667,26.46,0.11,0.0,0.97,0.02,0.0,0.0,0.31
9.900258200010285,0,0,0,0,1,65,8018380,3.1152665615081787,1.5743755102157593,1.0124273300170898,0.7798821926116943,-0.8395190834999084,-0.0008358199265785515,-0.007662985473871231,26.46,0.01,0.03,0.89,0.14,0.07,0.0,0.53
9.930503899988253,0,0,0,0,1,65,8018411,3.1001219749450684,1.5636377334594727,1.0014339685440063,0.4743204116821289,-0.7087907195091248,0.002567022806033492,-0.0032263188622891903,26.46,0.11,0.03,0.9,0.14,0.22,0.0,0.54
9.961272099986672,0,0,0,0,1,65,8018441,3.086292266845703,1.5439516305923462,0.991718590259552,0.1759796440601349,-0.5988361835479736,0.007560417987406254,0.0033462434075772762,26.48,0.06,0.07,0.92,0.07,0.23,0.0,0.47000000000000003
9.992246300011175,0,0,0,0,1,65,8018472,3.0749123096466064,1.5227314233779907,0.9727995991706848,-0.06572260707616806,-0.5873268246650696,0.0018854029476642609,0.0016807123320177197,26.48,0.0,0.13,0.89,0.07,0.2,0.0,0.31
10.02340040000854,0,0,0,0,1,65,8018503,3.0697877407073975,1.5061134099960327,0.9410972595214844,-0.20341725647449493,-0.6971935629844666,0.0021997252479195595,-0.0011381240328773856,26.48,0.0,0.16,0.91,0.0,0.18,0.0,0.06
10.054520800011232,0,0,0,0,1,65,8018535,3.072592258453369,1.4953755140304565,0.8989127278327942,-0.24429292976856232,-0.8705665469169617,-0.002229641191661358,-0.0004014815203845501,26.48,0.0,0.1,0.96,0.0,0.05,0.0,0.0
10.079729399993084,0,0,0,0,1,65,8018560,3.080012798309326,1.4912848472595215,0.8651654124259949,-0.2272881716489792,-0.9856082201004028,-0.0007911791908554733,-0.0036349138244986534,26.48,0.16,0.0,1.02,0.0,0.0,0.0,0.0
10.116572400002042,0,0,0,0,1,65,8018597,3.09474515914917,1.491029143333435,0.8232364654541016,-0.15667474269866943,-1.0450968742370605,-0.014930183999240398,0.0014747317181900144,26.48,0.0,0.0,1.08,0.13,0.01,0.0,0.0
10.147902800003067,0,0,0,0,1,65,8018628,3.100762128829956,1.4892396926879883,0.8058512806892395,-0.12150156497955322,-0.9328206777572632,-0.015538466162979603,-0.014899592846632004,26.48,0.0,0.14,1.18,0.0,0.01,0.0,0.0
10.178610600007232,0,0,0,0,1,65,8018659,3.1046435832977295,1.4713430404663086,0.8099419474601746,-0.22359058260917664,-0.6465542316436768,-0.005062159150838852,-0.016778694465756416,26.48,0.0,0.27,1.02,0.0,0.0,0.0,0.0
10.210395000001881,0,0,0,0,1,65,8018690,3.11908221244812,1.441174864768982,0.8265600204467773,-0.4236695468425751,-0.3261103928089142,0.00078014429891482,-0.00943968165665865,26.46,0.0,0.33,0.99,0.0,0.0,0.0,0.0
10.241276999993715,0,0,0,0,1,65,8018721,3.136766195297241,1.4023140668869019,0.8623530268669128,-0.6498832702636719,0.06373044103384018,-0.0002786747645586729,-0.0008049202151596546,26.46,0.0,0.39,0.97,0.0,0.0,0.12,0.0
10.272418599983212,0,0,0,0,1,65,8018752,3.1548097133636475,1.3583399057388306,0.9221782684326172,-0.8628423810005188,0.5608755350112915,0.0010163371916860342,0.001331975101493299,26.48,0.0,0.26,1.06,0.0,0.0,0.18,0.0
10.303466499986826,0,0,0,0,1,65,8018784,3.167790651321411,1.3179450035095215,1.0108932256698608,-0.9853408932685852,1.1702308654785156,-0.00035388482501730323,0.0004893890582025051,26.490000000000002,0.0,0.12,1.1,0.13,0.0,0.13,0.0
10.328673000010895,0,0,0,0,1,65,8018809,3.170264720916748,1.2962136268615723,1.0909160375595093,-0.9725283980369568,1.636466383934021,0.009290819987654686,1.4405697584152222e-05,26.48,0.01,0.1,1.12,0.04,0.01,0.05,0.01
10.364297099993564,0,0,0,0,1,65,8018844,3.163210391998291,1.2765275239944458,1.2085212469100952,-0.8490004539489746,2.164914846420288,0.008160937577486038,-0.005253826268017292,26.46,0.08,0.1,1.09,0.0,0.14,0.01,0.27
10.385491599998204,0,0,0,0,1,65,8018866,3.154700994491577,1.2668123245239258,1.2862430810928345,-0.7609833478927612,2.436429738998413,0.0015421314164996147,-0.0031257709488272667,26.46,0.0,0.23,1.0,0.0,0.21,0.03,0.34
10.411223900009645,0,0,0,0,1,65,8018891,3.144562244415283,1.2514724731445312,1.3698447942733765,-0.7139394283294678,2.6553468704223633,0.006652363575994968,-0.0019431286491453648,26.46,0.03,0.19,0.9400000000000001,0.0,0.25,0.09,0.32
10.441348299995298,0,0,0,0,1,65,8018921,3.13454008102417,1.2251392602920532,1.4593271017074585,-0.7513343095779419,2.7565536499023438,0.004584898240864277,-0.0008080245461314917,26.48,0.01,0.21,0.8300000000000001,0.0,0.21,0.12,0.21
10.472428200009745,0,0,0,0,1,65,8018952,3.1285629272460938,1.1893463134765625,1.5380715131759644,-0.8563998937606812,2.703007698059082,-0.00025887234369292855,-0.0005004340782761574,26.48,0.14,0.14,0.8200000000000001,0.0,0.22,0.14,0.12
10.503234500007238,0,0,0,0,1,65,8018983,3.1255316734313965,1.148951530456543,1.5945730209350586,-0.9767957925796509,2.47713041305542,0.002738394308835268,-0.006005363538861275,26.48,0.11,0.13,0.8,0.0,0.21,0.16,0.0
10.534590600000229,0,0,0,0,1,65,8019015,3.125182867050171,1.1031876802444458,1.6326669454574585,-1.1021935939788818,2.114417314529419,0.006687527522444725,-0.010468140244483948,26.48,0.14,0.1,0.88,0.0,0.19,0.2,0.0
10.559636799996952,0,0,0,0,1,65,8019040,3.125676155090332,1.0679062604904175,1.6495407819747925,-1.177164077758789,1.7899317741394043,-0.0003914178814738989,-0.0037285408470779657,26.46,0.14,0.1,0.9500000000000001,0.0,0.14,0.18,0.0
10.595880300010322,0,0,0,0,1,65,8019076,3.1262481212615967,1.0236763954162598,1.6554208993911743,-1.2013930082321167,1.2865370512008667,0.0027017202228307724,0.003263721475377679,26.46,0.09,0.0,1.01,0.0,0.01,0.16,0.09
10.616601499990793,0,0,0,0,1,65,8019097,3.1240901947021484,1.00347900390625,1.653631329536438,-1.1587694883346558,1.0098109245300293,0.003632785752415657,-0.010056005790829659,26.48,0.03,0.01,0.98,0.0,0.0,0.18,0.28
10.64333659998374,0,0,0,0,1,65,8019123,3.116703987121582,0.9853269457817078,1.648006796836853,-1.0537844896316528,0.7208442091941833,0.001831869245506823,-0.0065160575322806835,26.48,0.03,0.0,0.9400000000000001,0.0,0.0,0.21,0.45
10.674725999997463,0,0,0,0,1,65,8019155,3.102424144744873,0.9710097312927246,1.6321555376052856,-0.8850155472755432,0.38379427790641785,-0.005464077927172184,-0.0058945463970303535,26.48,0.0,0.05,0.92,0.0,0.0,0.26,0.55
10.699733199988259,0,0,0,0,1,65,8019180,3.0899999141693115,0.9595049023628235,1.612980842590332,-0.7772263288497925,0.12460401654243469,0.0005914311041124165,0.0032236131373792887,26.46,0.08,0.11,0.89,0.0,0.0,0.28,0.5
10.737189400009811,0,0,0,0,1,65,8019217,3.0770201683044434,0.9321489334106445,1.579233169555664,-0.7507478594779968,-0.20824526250362396,0.004255630075931549,0.0029007897246629,26.48,0.0,0.17,0.85,0.0,0.0,0.24,0.18
10.767675499984762,0,0,0,0,1,65,8019248,3.076397180557251,0.8948219418525696,1.5534111261367798,-0.8640717267990112,-0.38756102323532104,0.0015521158929914236,-0.0022537503391504288,26.48,0.01,0.14,0.9500000000000001,0.01,0.0,0.19,0.0
10.798715099983383,0,0,0,0,1,65,8019279,3.0855772495269775,0.8503365516662598,1.5383270978927612,-1.021557092666626,-0.426358699798584,0.003338863607496023,-0.006163793615996838,26.46,0.0,0.03,1.09,0.0,0.0,0.16,0.0
10.830926900001941,0,0,0,0,1,65,8019311,3.101093292236328,0.8068737983703613,1.5347477197647095,-1.1279436349868774,-0.3415977954864502,0.007949378341436386,0.000902015483006835,26.46,0.0,0.0,1.1500000000000001,0.0,0.0,0.19,0.0
10.855495600000722,0,0,0,0,1,65,8019336,3.1091620922088623,0.7810518145561218,1.5344921350479126,-1.1172693967819214,-0.26085689663887024,0.010243253782391548,0.0012917387066408992,26.46,0.0,0.05,1.17,0.01,0.0,0.17,0.0
10.893737200007308,0,0,0,0,1,65,8019374,3.1147196292877197,0.7631552815437317,1.5257996320724487,-0.9223867654800415,-0.2312730997800827,0.004226750694215298,0.0011596319964155555,26.48,0.0,0.07,1.03,0.0,0.0,0.09,0.0
10.924581600003876,0,0,0,0,1,65,8019405,3.1227898597717285,0.7652006149291992,1.5066248178482056,-0.6483641266822815,-0.3329022526741028,0.005393636878579855,-0.001018974115140736,26.44,0.09,0.23,0.88,0.0,0.0,0.05,0.0
10.95522509998409,0,0,0,0,1,65,8019435,3.139927864074707,0.7715921401977539,1.4838708639144897,-0.42039725184440613,-0.44507160782814026,-0.0007868325337767601,0.0010395117569714785,26.46,0.09,0.21,1.06,0.17,0.07,0.0,0.0
10.986570799985202,0,0,0,0,1,65,8019467,3.1588571071624756,0.799970805644989,1.4483333826065063,-0.07283058017492294,-0.6211768984794617,-0.003958029672503471,0.0018546748906373978,26.48,0.08,0.25,0.98,0.14,0.16,0.0,0.0
11.011470199999167,0,0,0,0,1,65,8019492,3.1692092418670654,0.8429223895072937,1.4115180969238281,0.3156283497810364,-0.8101840019226074,-0.0022534115705639124,-0.00034314533695578575,26.48,0.06,0.29,1.01,0.0,0.12,0.0,0.0
11.04847979999613,0,0,0,0,1,65,8019529,3.178849697113037,0.9331715703010559,1.3575729131698608,0.986427366733551,-1.0295501947402954,-0.0017613377422094345,-0.0020533509086817503,26.48,0.0,0.17,1.1400000000000001,0.0,0.12,0.0,0.0
11.079194199992344,0,0,0,0,1,65,8019559,3.1792471408843994,1.0198415517807007,1.3245922327041626,1.4925330877304077,-1.0593043565750122,-0.0005342034855857491,-0.003525508102029562,26.48,0.0,0.17,1.1300000000000001,0.0,0.05,0.0,0.04
11.110532599996077,0,0,0,0,1,65,8019591,3.172121286392212,1.1167378425598145,1.2982591390609741,1.9299699068069458,-0.9938493371009827,-0.006469240877777338,-0.0018320068484172225,26.48,0.0,0.12,1.06,0.08,0.0,0.0,0.24
11.135646499984432,0,0,0,0,1,65,8019616,3.1633408069610596,1.1931813955307007,1.2785730361938477,2.1904006004333496,-0.9381476640701294,-0.004271532408893108,0.0055133141577243805,26.48,0.0,0.18,1.0,0.05,0.0,0.0,0.36
11.172505599999567,0,0,0,0,1,65,8019653,3.1485583782196045,1.3010711669921875,1.244314193725586,2.4287028312683105,-0.9278680682182312,-0.007359117269515991,-0.0006632317090407014,26.46,0.03,0.25,0.8200000000000001,0.01,0.0,0.0,0.29
11.203355200006627,0,0,0,0,1,65,8019683,3.1397905349731445,1.3762363195419312,1.2128673791885376,2.4605307579040527,-0.956268310546875,-0.0021520275622606277,0.0013590110465884209,26.46,0.0,0.21,0.8200000000000001,0.0,0.0,0.0,0.17
11.234531900001457,0,0,0,0,1,65,8019715,3.134464740753174,1.441174864768982,1.1763076782226562,2.3412129878997803,-1.0047739744186401,0.0002441073884256184,-0.010821131058037281,26.48,0.0,0.14,0.8300000000000001,0.0,0.0,0.0,0.08
11.259706000011647,0,0,0,0,1,65,8019740,3.132007598876953,1.482592225074768,1.144605278968811,2.1877729892730713,-1.061042070388794,-0.0019765840843319893,-0.00707598403096199,26.46,0.11,0.12,0.85,0.03,0.0,0.0,0.07
11.29543100000592,0,0,0,0,1,65,8019775,3.129424810409546,1.5255438089370728,1.098586082458496,1.901792287826538,-1.1391276121139526,-0.0004470434505492449,0.0005395093467086554,26.46,0.0,0.07,0.9500000000000001,0.03,0.0,0.0,0.03
11.316553799988469,0,0,0,0,1,65,8019797,3.1280083656311035,1.5434402227401733,1.0707184076309204,1.6814872026443481,-1.1676126718521118,-0.0004128300934098661,0.00042231357656419277,26.490000000000002,0.14,0.1,0.92,0.07,0.0,0.0,0.07
11.342553199996473,0,0,0,0,1,65,8019823,3.1257407665252686,1.5541781187057495,1.0408061742782593,1.3889774084091187,-1.167781949043274,-0.0010275448439642787,0.0017462724354118109,26.48,0.0,0.08,0.93,0.14,0.0,0.0,0.15
11.374463799991645,0,0,0,0,1,65,8019855,3.1204993724823,1.555712103843689,1.0088478326797485,1.0090597867965698,-1.1231285333633423,0.013619625009596348,0.006313445046544075,26.48,0.09,0.0,0.9500000000000001,0.19,0.06,0.0,0.28
11.399530399998184,0,0,0,0,1,65,8019880,3.11299991607666,1.555712103843689,0.9886506199836731,0.7702012658119202,-1.054602026939392,0.01735134795308113,0.005784857086837292,26.48,0.01,0.0,0.9500000000000001,0.16,0.15,0.0,0.49
11.436079899984179,0,0,0,0,1,65,8019916,3.093815326690674,1.552899718284607,0.9710099101066589,0.5058552026748657,-0.8843926787376404,0.011347737163305283,-0.0014383463421836495,26.46,0.01,0.07,0.9500000000000001,0.03,0.17,0.0,0.64
11.456674899993232,0,0,0,0,1,65,8019937,3.0816965103149414,1.545485496520996,0.9648739695549011,0.34384945034980774,-0.7695093154907227,0.0016748723573982716,0.012822557240724564,26.46,0.01,0.07,0.96,0.03,0.12,0.0,0.62
11.496517999999924,0,0,0,0,1,65,8019977,3.061459541320801,1.5255438089370728,0.9549033045768738,0.055670611560344696,-0.5819225311279297,0.00034462311305105686,0.002550343284383416,26.48,0.17,0.14,0.9,0.0,0.06,0.0,0.39
11.526476700004423,0,0,0,0,1,65,8020007,3.0543084144592285,1.5153173208236694,0.9377737045288086,-0.058869559317827225,-0.5653925538063049,-0.004136419855058193,0.0003643269883468747,26.48,0.03,0.15,0.91,0.0,0.07,0.0,0.13
11.55640349999885,0,0,0,0,1,65,8020036,3.055203437805176,1.5125049352645874,0.9124628901481628,-0.07781895995140076,-0.6410220861434937,0.011249834671616554,0.002246877644211054,26.48,0.03,0.1,0.9500000000000001,0.0,0.05,0.0,0.0
11.587491699989187,0,0,0,0,1,65,8020068,3.065328598022461,1.5127606391906738,0.8810164332389832,-0.04922715201973915,-0.7429168820381165,0.01826893538236618,-0.00212395703420043,26.48,0.0,0.0,1.02,0.0,0.0,0.0,0.0
11.612487899983535,0,0,0,0,1,65,8020093,3.0764553546905518,1.5127606391906738,0.8572397232055664,-0.03732513636350632,-0.7910283803939819,0.027078848332166672,-0.006969665642827749,26.44,0.06,0.0,1.04,0.15,0.0,0.0,0.0
11.648581599991303,0,0,0,0,1,65,8020129,3.0833234786987305,1.5102039575576782,0.8321847915649414,-0.03957158699631691,-0.7717806696891785,0.018486790359020233,-0.0036010975018143654,26.48,0.0,0.18,1.1400000000000001,0.0,0.0,0.0,0.01
11.669622199988225,0,0,0,0,1,65,8020150,3.0854315757751465,1.5002330541610718,0.827071487903595,-0.11112413555383682,-0.6822651028633118,0.01157164853066206,0.0035830845590680838,26.48,0.2,0.26,0.96,0.0,0.0,0.0,0.0
11.695496100001037,0,0,0,0,1,65,8020176,3.096005439758301,1.4797800779342651,0.8306506276130676,-0.26451829075813293,-0.4944034814834595,0.008265714161098003,0.013877786695957184,26.48,0.0,0.35000000000000003,0.89,0.0,0.05,0.0,0.0
11.726793599984376,0,0,0,0,1,65,8020207,3.114281415939331,1.4503787755966187,0.8431780934333801,-0.45258426666259766,-0.25318193435668945,0.0035543160047382116,0.003901564283296466,26.46,0.0,0.5,0.98,0.0,0.0,0.0,0.0
11.757825599983335,0,0,0,0,1,65,8020238,3.1334307193756104,1.4099839925765991,0.882806122303009,-0.675501823425293,0.14069262146949768,0.0030916603282094,0.005637392867356539,26.48,0.0,0.31,1.07,0.0,0.0,0.26,0.0
11.788880400010385,0,0,0,0,1,65,8020269,3.1520330905914307,1.3660097122192383,0.9559259414672852,-0.887725293636322,0.727318525314331,-0.004291093442589045,0.004894432611763477,26.46,0.12,0.16,1.11,0.1,0.0,0.34,0.0
11.820246899995254,0,0,0,0,1,65,8020300,3.1606433391571045,1.3337961435317993,1.0482202768325806,-0.9444084763526917,1.3494044542312622,-0.006342795677483082,0.0007529252907261252,26.48,0.0,0.15,1.2,0.11,0.12,0.23,0.0
11.851664099987829,0,0,0,0,1,65,8020332,3.1567654609680176,1.3161554336547852,1.1443496942520142,-0.8417668342590332,1.8258419036865234,-0.006679723970592022,-0.003203342668712139,26.48,0.17,0.22,1.09,0.0,0.2,0.2,0.21
11.876637899986235,0,0,0,0,1,65,8020357,3.148712396621704,1.3038835525512695,1.2207931280136108,-0.751399040222168,2.106346845626831,0.0020123852882534266,0.0017250414239242673,26.46,0.0,0.24,1.06,0.0,0.19,0.23,0.25
11.913234000006923,0,0,0,0,1,65,8020393,3.1368818283081055,1.2732038497924805,1.3327735662460327,-0.7645003199577332,2.425457239151001,0.002604446839541197,0.0015627514803782105,26.48,0.08,0.21,0.9500000000000001,0.0,0.21,0.26,0.17
11.933617500006221,0,0,0,0,1,65,8020414,3.1318304538726807,1.2481489181518555,1.3918319940567017,-0.8414601683616638,2.5073819160461426,-0.001950892386958003,-0.001644644420593977,26.48,0.12,0.25,0.85,0.0,0.21,0.25,0.1
11.960463499999605,0,0,0,0,1,65,8020441,3.128418207168579,1.2105664014816284,1.4565147161483765,-0.9715819358825684,2.4880316257476807,-0.002784270793199539,-0.0013882762286812067,26.48,0.17,0.17,0.85,0.0,0.23,0.26,0.01
11.991831799998181,0,0,0,0,1,65,8020472,3.1266579627990723,1.1642913818359375,1.5163401365280151,-1.1186213493347168,2.339930772781372,0.00010475568706169724,-0.007555847521871328,26.44,0.0,0.17,0.8200000000000001,0.0,0.26,0.24,0.0
12.022796800010838,0,0,0,0,1,65,8020503,3.12793231010437,1.1162265539169312,1.5603141784667969,-1.235775351524353,2.0916483402252197,-0.0030682820361107588,-0.00523565337061882,26.48,0.09,0.13,0.85,0.0,0.26,0.28,0.0
12.052367099997355,0,0,0,0,1,65,8020532,3.129718542098999,1.0719966888427734,1.5897154808044434,-1.313643455505371,1.812576174736023,-0.00033724098466336727,-0.002847779542207718,26.48,0.0,0.12,0.92,0.0,0.2,0.29,0.0
12.08338029999868,0,0,0,0,1,65,8020563,3.130239963531494,1.0277670621871948,1.61016845703125,-1.345401644706726,1.4960118532180786,-0.002707339823246002,9.610672714188695e-05,26.46,0.01,0.06,0.99,0.0,0.09,0.29,0.06
12.114451300003566,0,0,0,0,1,65,8020595,3.1258773803710938,0.9891617894172668,1.6206507682800293,-1.3126450777053833,1.1669936180114746,-0.000795104366261512,-0.007773887366056442,26.48,0.0,0.06,0.97,0.0,0.0,0.28,0.25
12.139899500005413,0,0,0,0,1,65,8020620,3.119074821472168,0.9633398056030273,1.6219290494918823,-1.24907386302948,0.914259135723114,-0.0026181868743151426,0.011100079864263535,26.490000000000002,0.01,0.02,0.96,0.0,0.0,0.27,0.35000000000000003
12.176615900010802,0,0,0,0,1,65,8020657,3.1059458255767822,0.9324045181274414,1.6211620569229126,-1.1186469793319702,0.6097176671028137,0.0011583364102989435,0.015052675269544125,26.48,0.0,0.0,0.9500000000000001,0.0,0.0,0.22,0.54
12.2067199999874,0,0,0,0,1,65,8020687,3.0910210609436035,0.9152750968933105,1.6122137308120728,-0.9753173589706421,0.37875238060951233,0.007303554564714432,0.004079545382410288,26.46,0.0,0.05,0.91,0.0,0.0,0.16,0.5700000000000001
12.23782310000388,0,0,0,0,1,65,8020718,3.075880527496338,0.9014692306518555,1.590993881225586,-0.8252608180046082,0.09473800659179688,0.005117604974657297,0.0010088125709444284,26.48,0.0,0.12,0.79,0.0,0.0,0.12,0.42
12.268758499994874,0,0,0,0,1,65,8020749,3.068002939224243,0.8833171725273132,1.5649161338806152,-0.747638463973999,-0.16778632998466492,0.002573970705270767,-0.0027137319557368755,26.48,0.06,0.17,0.76,0.0,0.0,0.09,0.07
12.299456999986432,0,0,0,0,1,65,8020780,3.071688413619995,0.8539158701896667,1.5490649938583374,-0.791749119758606,-0.28073593974113464,0.0014009152073413134,-0.005029711872339249,26.46,0.01,0.1,0.97,0.0,0.0,0.12,0.0
12.330787999992026,0,0,0,0,1,65,8020811,3.0853753089904785,0.8135210871696472,1.5485535860061646,-0.9240858554840088,-0.21571744978427887,0.00354203162714839,0.012027617543935776,26.48,0.0,0.0,1.04,0.1,0.0,0.15,0.0
12.36200180000742,0,0,0,0,1,65,8020842,3.102907419204712,0.7736374735832214,1.547531008720398,-1.0310178995132446,-0.15768000483512878,0.0021064393222332,0.011919889599084854,26.48,0.0,0.0,1.08,0.0,0.0,0.18,0.0
12.39258049998898,0,0,0,0,1,65,8020873,3.1136040687561035,0.7460258603096008,1.5383270978927612,-1.0096689462661743,-0.17616483569145203,-0.0036651354748755693,0.005668220575898886,26.48,0.03,0.14,1.19,0.07,0.07,0.07,0.0
12.42351829999825,0,0,0,0,1,65,8020904,3.126981019973755,0.7368219494819641,1.5137834548950195,-0.8331491351127625,-0.33163222670555115,-0.0018907850608229637,-0.0037424114998430014,26.46,0.0,0.17,1.05,0.03,0.0,0.0,0.0
12.45417599999928,0,0,0,0,1,65,8020934,3.1454126834869385,0.7424466013908386,1.4838708639144897,-0.5616940259933472,-0.511273205280304,-0.000419019692344591,0.0017966619925573468,26.46,0.14,0.39,1.09,0.13,0.0,0.0,0.0
12.486410899990005,0,0,0,0,1,65,8020966,3.1682167053222656,0.7654563784599304,1.4460325241088867,-0.21775829792022705,-0.6953944563865662,0.003565534483641386,0.0029569061007350683,26.46,0.0,0.26,1.03,0.16,0.15,0.0,0.0
12.511229700001422,0,0,0,0,1,65,8020991,3.183973550796509,0.8038058280944824,1.4122852087020874,0.16451096534729004,-0.8446574211120605,-0.005622305907309055,0.005908966530114412,26.48,0.0,0.22,1.0,0.0,0.11,0.0,0.0
12.54901560000144,0,0,0,0,1,65,8021029,3.196122407913208,0.8922653198242188,1.362942099571228,0.8613826632499695,-0.9987300038337708,-0.004246588796377182,0.00440322607755661,26.46,0.0,0.19,1.09,0.0,0.0,0.0,0.0
12.580532099993434,0,0,0,0,1,65,8021061,3.1970739364624023,0.9843042492866516,1.333796501159668,1.4285242557525635,-0.9856032133102417,0.0013460705522447824,0.002407617634162307,26.46,0.01,0.18,1.11,0.0,0.0,0.0,0.01
12.605794500006596,0,0,0,0,1,65,8021086,3.192999839782715,1.0607476234436035,1.3169225454330444,1.8048135042190552,-0.9173051118850708,0.0014912966871634126,0.0002745733072515577,26.46,0.03,0.17,1.07,0.03,0.0,0.0,0.14
12.642417099996237,0,0,0,0,1,65,8021122,3.1825435161590576,1.1706829071044922,1.2946799993515015,2.194676160812378,-0.8144161105155945,-0.006884342059493065,0.007918354123830795,26.46,0.0,0.14,0.97,0.01,0.0,0.0,0.26
12.662691500008805,0,0,0,0,1,65,8021143,3.1757423877716064,1.2320421934127808,1.2783174514770508,2.3427748680114746,-0.7959408164024353,0.003979972563683987,0.0055920821614563465,26.48,0.06,0.16,0.89,0.0,0.0,0.0,0.23
12.68839399999706,0,0,0,0,1,65,8021168,3.16827392578125,1.3003042936325073,1.256330132484436,2.4360034465789795,-0.8123170733451843,-0.0005416647763922811,0.0014895409112796187,26.46,0.0,0.18,0.89,0.0,0.0,0.0,0.2
12.718735000002198,0,0,0,0,1,65,8021199,3.1616733074188232,1.372145652770996,1.22539484500885,2.4105453491210938,-0.8583852052688599,-0.004070567898452282,-0.005972714629024267,26.48,0.08,0.14,0.89,0.0,0.0,0.0,0.13
12.749368699995102,0,0,0,0,1,65,8021229,3.1566665172576904,1.4281359910964966,1.1929258108139038,2.269319534301758,-0.9157955050468445,0.004383613355457783,-0.007522264029830694,26.46,0.0,0.17,0.89,0.03,0.0,0.0,0.08
12.779435700009344,0,0,0,0,1,65,8021259,3.1532251834869385,1.4731327295303345,1.1571327447891235,2.0650577545166016,-0.9870085120201111,0.00545098353177309,-0.0021680803038179874,26.48,0.0,0.13,0.91,0.03,0.0,0.0,0.07
12.810343999997713,0,0,0,0,1,65,8021290,3.1498825550079346,1.5086699724197388,1.1190389394760132,1.813977837562561,-1.0546525716781616,-0.004526207223534584,-0.004445372149348259,26.48,0.0,0.12,0.89,0.01,0.0,0.0,0.09
12.841359599988209,0,0,0,0,1,65,8021321,3.1463215351104736,1.5321909189224243,1.0847800970077515,1.5260324478149414,-1.0742677450180054,-0.0006336490041576326,0.0018953965045511723,26.48,0.14,0.06,0.92,0.02,0.0,0.0,0.15
12.872324600000866,0,0,0,0,1,65,8021352,3.1410553455352783,1.5436959266662598,1.0558900833129883,1.2120473384857178,-1.0382561683654785,-0.005483375396579504,0.000792189035564661,26.46,0.14,0.03,0.92,0.03,0.0,0.0,0.24
12.903339599986793,0,0,0,0,1,65,8021383,3.133368968963623,1.5459967851638794,1.0316022634506226,0.902610719203949,-0.9704685211181641,0.0005263066850602627,0.008007284253835678,26.46,0.0,0.03,0.92,0.07,0.02,0.0,0.32
12.934704399987822,0,0,0,0,1,65,8021415,3.1228952407836914,1.545485496520996,1.007569670677185,0.6341033577919006,-0.9064695239067078,0.0020842673256993294,0.007079168688505888,26.48,0.08,0.0,0.93,0.13,0.12,0.0,0.46
12.959847499994794,0,0,0,0,1,65,8021440,3.1121480464935303,1.5452299118041992,0.9894177317619324,0.4848513603210449,-0.862541913986206,-0.0006067226058803499,0.007434397004544735,26.46,0.09,0.03,0.89,0.13,0.23,0.0,0.51
12.99652720001177,0,0,0,0,1,65,8021477,3.0960512161254883,1.538582682609558,0.9674307703971863,0.2797353267669678,-0.7782242298126221,-0.007281461730599403,0.0022211852483451366,26.46,0.0,0.1,0.92,0.06,0.33,0.0,0.37
13.021827899996424,0,0,0,0,1,65,8021502,3.0888752937316895,1.5293787717819214,0.9526020884513855,0.13141432404518127,-0.731572687625885,-0.008442481979727745,0.00017335405573248863,26.46,0.0,0.14,0.9400000000000001,0.0,0.27,0.0,0.23
13.059223299991572,0,0,0,0,1,65,8021539,3.0850658416748047,1.5227314233779907,0.9203885197639465,0.019492119550704956,-0.7618979811668396,0.008242801763117313,-0.00031064479844644666,26.46,0.16,0.08,0.96,0.0,0.13,0.0,0.05
13.083696499990765,0,0,0,0,1,65,8021564,3.08681058883667,1.5222201347351074,0.891754150390625,0.013072457164525986,-0.844872772693634,0.012200946919620037,-0.003974233288317919,26.46,0.0,0.04,0.98,0.0,0.08,0.0,0.0
13.121458799985703,0,0,0,0,1,65,8021601,3.095635175704956,1.5222201347351074,0.8477802276611328,0.00936724990606308,-0.95848548412323,0.01973721571266651,-0.0008327467367053032,26.46,0.12,0.0,1.04,0.02,0.06,0.0,0.0
13.145667100005085,0,0,0,0,1,65,8021626,3.101959705352783,1.521964430809021,0.8224694132804871,0.007822235114872456,-0.9805354475975037,0.0165691040456295,0.0015992482658475637,26.46,0.03,0.0,1.1,0.07,0.07,0.0,0.0
13.183504699991317,0,0,0,0,1,65,8021664,3.102809190750122,1.516339898109436,0.8012495040893555,-0.03366634249687195,-0.8574216365814209,0.017715908586978912,0.013184609822928905,26.48,0.0,0.14,1.17,0.0,0.02,0.0,0.11
13.21422339999117,0,0,0,0,1,65,8021694,3.1026127338409424,1.4951196908950806,0.8020162582397461,-0.19724205136299133,-0.6266400814056396,0.00789669994264841,0.0032082051038742065,26.48,0.06,0.21,0.9400000000000001,0.0,0.05,0.0,0.0
13.245117599988589,0,0,0,0,1,65,8021725,3.1144843101501465,1.464695930480957,0.8053401112556458,-0.4125627279281616,-0.4161674380302429,0.008097384124994278,0.021735399961471558,26.48,0.01,0.28,0.9400000000000001,0.0,0.03,0.0,0.0
13.275799299997743,0,0,0,0,1,65,8021756,3.1302926540374756,1.4276247024536133,0.8201684951782227,-0.6212872266769409,-0.18673259019851685,0.0012473007664084435,0.0044509596191346645,26.46,0.0,0.48,0.89,0.0,0.0,0.15,0.0
13.307437899988145,0,0,0,0,1,65,8021787,3.1494617462158203,1.3798155784606934,0.8649094700813293,-0.869470477104187,0.23094899952411652,0.008832421153783798,0.007335660047829151,26.48,0.0,0.28,1.07,0.0,0.0,0.33,0.0
13.3385821999982,0,0,0,0,1,65,8021819,3.1705188751220703,1.3322621583938599,0.9441652297973633,-1.057750940322876,0.84654700756073,-0.004138539545238018,0.004247535020112991,26.46,0.11,0.11,1.09,0.14,0.0,0.33,0.0
13.363775000005262,0,0,0,0,1,65,8021844,3.1779658794403076,1.3059288263320923,1.0239320993423462,-1.0696170330047607,1.3722453117370605,-0.007521928288042545,0.0024489397183060646,26.46,0.0,0.07,1.1400000000000001,0.14,0.04,0.25,0.0
13.400342999986606,0,0,0,0,1,65,8021880,3.1736268997192383,1.2893108129501343,1.139747977256775,-0.8893665671348572,1.9674662351608276,-0.004149797838181257,-0.0014661685563623905,26.46,0.16,0.1,1.1,0.0,0.23,0.16,0.22
13.420723699993687,0,0,0,0,1,65,8021901,3.1661157608032227,1.284197449684143,1.210310935974121,-0.7570161819458008,2.232123374938965,-0.000904106127563864,-0.0020606382749974728,26.46,0.03,0.15,1.1,0.0,0.23,0.19,0.3
13.447189600003185,0,0,0,0,1,65,8021927,3.156095027923584,1.2724369764328003,1.300048828125,-0.6679454445838928,2.520176887512207,-0.00485273590311408,-0.0021347524598240852,26.46,0.0,0.21,1.0,0.0,0.22,0.22,0.29
13.477230999997118,0,0,0,0,1,65,8021957,3.145533800125122,1.2484045028686523,1.3964338302612305,-0.6892740726470947,2.7186193466186523,0.005084181670099497,-0.0018534749979153275,26.46,0.08,0.21,0.88,0.0,0.22,0.21,0.22
13.508348100003786,0,0,0,0,1,65,8021988,3.1384968757629395,1.2144012451171875,1.4820810556411743,-0.7955429553985596,2.7360448837280273,0.005747732240706682,-0.006803238298743963,26.48,0.12,0.13,0.88,0.0,0.27,0.21,0.14
13.53901659999974,0,0,0,0,1,65,8022019,3.133432626724243,1.1755404472351074,1.5498319864273071,-0.9235876798629761,2.597454071044922,0.00595907773822546,-0.00334238656796515,26.48,0.16,0.15,0.8200000000000001,0.0,0.31,0.21,0.06
13.570662099984474,0,0,0,0,1,65,8022051,3.131176233291626,1.1331003904342651,1.5971297025680542,-1.0373692512512207,2.290590286254883,0.0011737702880054712,-0.0034350003115832806,26.48,0.01,0.13,0.91,0.0,0.27,0.24,0.0
13.595816499990178,0,0,0,0,1,65,8022076,3.130903720855713,1.0993528366088867,1.6209064722061157,-1.1119028329849243,1.9860178232192993,0.0038150378968566656,-0.006063259206712246,26.490000000000002,0.01,0.1,0.91,0.0,0.18,0.27,0.0
13.633233200001996,0,0,0,0,1,65,8022113,3.1297831535339355,1.0515437126159668,1.6393141746520996,-1.171280860900879,1.5100691318511963,0.002139934804290533,-0.005803045351058245,26.46,0.09,0.09,0.92,0.0,0.05,0.27,0.05
13.657766399992397,0,0,0,0,1,65,8022138,3.1277687549591064,1.025465965270996,1.6405925750732422,-1.1525495052337646,1.1813092231750488,0.00033231420093216,0.019621746614575386,26.46,0.0,0.04,0.9500000000000001,0.0,0.0,0.26,0.11
13.695702199998777,0,0,0,0,1,65,8022176,3.1206274032592773,1.0016893148422241,1.6349679231643677,-0.9906176328659058,0.7429046034812927,0.005091291386634111,0.004725928883999586,26.48,0.09,0.0,0.97,0.0,0.0,0.25,0.39
13.727277300000424,0,0,0,0,1,65,8022207,3.1091837882995605,0.9950421452522278,1.6211620569229126,-0.779403805732727,0.4219091236591339,0.0018254021415486932,0.010682253167033195,26.46,0.03,0.04,1.0,0.0,0.0,0.23,0.53
13.757412500010105,0,0,0,0,1,65,8022237,3.093627691268921,0.9922297596931458,1.599174976348877,-0.5880025029182434,0.1166715919971466,0.013195859268307686,-0.00205240142531693,26.46,0.01,0.07,0.91,0.0,0.0,0.29,0.56
13.789411100005964,0,0,0,0,1,65,8022269,3.0791022777557373,0.9768899083137512,1.5733529329299927,-0.534757673740387,-0.14636613428592682,0.0036015398800373077,0.0007679483387619257,26.46,0.0,0.16,0.85,0.0,0.0,0.35000000000000003,0.29
13.813759299984667,0,0,0,0,1,65,8022294,3.074216842651367,0.9500452876091003,1.5592914819717407,-0.6408433318138123,-0.2527715861797333,0.007515170611441135,-0.0037743288557976484,26.48,0.01,0.24,0.85,0.09,0.0,0.35000000000000003,0.0
13.851262000011047,0,0,0,0,1,65,8022331,3.0803260803222656,0.889453113079071,1.5534111261367798,-0.9515528678894043,-0.2327076941728592,0.006479690317064524,0.004541004076600075,26.48,0.14,0.09,0.96,0.14,0.0,0.32,0.0
13.876290899992455,0,0,0,0,1,65,8022356,3.091370105743408,0.84471195936203,1.5534111261367798,-1.151795744895935,-0.1738184094429016,0.0008046719594858587,0.005580570548772812,26.46,0.09,0.0,1.03,0.0,0.0,0.33,0.0
13.913555100007216,0,0,0,0,1,65,8022394,3.109262704849243,0.7836084365844727,1.5526442527770996,-1.3111404180526733,-0.1205882579088211,-0.005233771167695522,0.002751199994236231,26.46,0.01,0.0,1.06,0.0,0.0,0.43,0.0
13.944482899998548,0,0,0,0,1,65,8022425,3.1154098510742188,0.7467927932739258,1.5516215562820435,-1.2894278764724731,-0.09033595770597458,-0.0032025976106524467,-0.007129432167857885,26.46,0.0,0.11,1.25,0.11,0.1,0.34,0.0
13.97602500001085,0,0,0,0,1,65,8022456,3.1177515983581543,0.729407787322998,1.5375601053237915,-1.1067038774490356,-0.16821672022342682,0.0022214266937226057,-0.003051056992262602,26.46,0.17,0.09,1.05,0.1,0.04,0.12,0.0
14.00597219998599,0,0,0,0,1,65,8022486,3.127202033996582,0.7283851504325867,1.513527750968933,-0.8187909722328186,-0.33772119879722595,0.005277236923575401,-0.0019697127863764763,26.48,0.0,0.14,1.02,0.07,0.02,0.0,0.0
14.03661270000157,0,0,0,0,1,65,8022517,3.143832206726074,0.729407787322998,1.4897509813308716,-0.5795741081237793,-0.45943066477775574,0.009636861272156239,0.0010982122039422393,26.48,0.03,0.2,1.06,0.15,0.13,0.0,0.0
14.067557000002125,0,0,0,0,1,65,8022548,3.1636083126068115,0.7475598454475403,1.4557479619979858,-0.2836915850639343,-0.6191191673278809,0.00352788669988513,-0.0058003817684948444,26.48,0.0,0.3,0.97,0.06,0.09,0.0,0.0
14.098951699997997,0,0,0,0,1,65,8022579,3.17966890335083,0.799970805644989,1.4030812978744507,0.2337825894355774,-0.9024001359939575,-0.004444848280400038,-0.003370001446455717,26.46,0.0,0.33,0.99,0.0,0.02,0.0,0.0
14.130910500010941,0,0,0,0,1,65,8022611,3.192085027694702,0.8828058242797852,1.3453010320663452,0.8913861513137817,-1.1699244976043701,0.004259915556758642,-0.001460231258533895,26.48,0.11,0.28,1.01,0.0,0.05,0.0,0.0
14.155873499985319,0,0,0,0,1,65,8022636,3.196784734725952,0.9574596285820007,1.3089971542358398,1.3730336427688599,-1.2495067119598389,-0.0030350172892212868,-0.0006160895572975278,26.48,0.16,0.1,1.1400000000000001,0.0,0.08,0.0,0.0
14.192751800001133,0,0,0,0,1,65,8022673,3.194924831390381,1.0740419626235962,1.2737153768539429,1.9459660053253174,-1.1635900735855103,0.0003470929805189371,-0.002843306865543127,26.46,0.0,0.1,1.04,0.03,0.0,0.0,0.14
14.217715300008422,0,0,0,0,1,65,8022698,3.188786268234253,1.1563657522201538,1.2558189630508423,2.2490592002868652,-1.0575791597366333,0.0021274834871292114,0.002443927340209484,26.46,0.01,0.11,1.0,0.03,0.0,0.0,0.26
14.254433699999936,0,0,0,0,1,65,8022734,3.1756772994995117,1.2732038497924805,1.2287187576293945,2.562901258468628,-0.953643798828125,-0.004838201217353344,0.0017921461258083582,26.48,0.16,0.12,0.9,0.0,0.0,0.0,0.33
14.274979300011182,0,0,0,0,1,65,8022755,3.1676523685455322,1.3360971212387085,1.2113336324691772,2.656303644180298,-0.9242767095565796,-0.008481503464281559,-0.0013921053614467382,26.490000000000002,0.01,0.18,0.8200000000000001,0.0,0.0,0.0,0.29
14.300531299988506,0,0,0,0,1,65,8022781,3.1597325801849365,1.4043593406677246,1.1888351440429688,2.6586105823516846,-0.9082906246185303,-0.004320918582379818,0.007431252859532833,26.46,0.09,0.15,0.8300000000000001,0.0,0.0,0.0,0.21
14.331137600005604,0,0,0,0,1,65,8022811,3.1536669731140137,1.4680194854736328,1.1599451303482056,2.5225656032562256,-0.9173266887664795,-0.010231712833046913,-0.0009411514620296657,26.46,0.12,0.14,0.9,0.04,0.0,0.0,0.13
14.36228149998351,0,0,0,0,1,65,8022842,3.149545907974243,1.516339898109436,1.1264530420303345,2.264378547668457,-0.95866459608078,-0.005225978791713715,-0.002201136201620102,26.46,0.06,0.13,0.9,0.09,0.0,0.0,0.07
14.393534100003308,0,0,0,0,1,65,8022874,3.1469743251800537,1.547275185585022,1.0911716222763062,1.905867099761963,-1.0009591579437256,-0.0064291986636817455,-0.005941019393503666,26.46,0.06,0.09,0.96,0.04,0.0,0.0,0.02
14.418926999991527,0,0,0,0,1,65,8022899,3.14573335647583,1.558524489402771,1.0661166906356812,1.5785000324249268,-1.0053634643554688,-0.0038414690643548965,-0.003154621459543705,26.46,0.0,0.04,1.0,0.01,0.0,0.0,0.11
14.455816000001505,0,0,0,0,1,65,8022936,3.1400015354156494,1.56159245967865,1.0326248407363892,1.0951062440872192,-0.9730067253112793,-0.013059697113931179,-0.004957923665642738,26.48,0.06,0.0,0.97,0.07,0.0,0.0,0.34
14.480962600006023,0,0,0,0,1,65,8022961,3.1311793327331543,1.561336636543274,1.0108932256698608,0.8362686634063721,-0.947864294052124,-0.01171458326280117,-0.004673657473176718,26.46,0.0,0.02,0.91,0.11,0.09,0.0,0.5
14.51722740000696,0,0,0,0,1,65,8022997,3.113004207611084,1.5595470666885376,0.9804694056510925,0.5561347007751465,-0.9144354462623596,-0.013231854885816574,-0.0008070976473391056,26.48,0.04,0.06,0.88,0.09,0.22,0.0,0.54
14.538016000005882,0,0,0,0,1,65,8023018,3.1026439666748047,1.5539222955703735,0.9643628001213074,0.4011843204498291,-0.887405514717102,0.0014838308561593294,0.007477341685444117,26.48,0.0,0.11,0.8300000000000001,0.07,0.25,0.0,0.43
14.563408599991817,0,0,0,0,1,65,8023043,3.0942349433898926,1.5429290533065796,0.9462105631828308,0.21253825724124908,-0.850016176700592,-0.0004825349315069616,-0.00040037313010543585,26.46,0.09,0.14,0.85,0.02,0.23,0.0,0.23
14.594811299990397,0,0,0,0,1,65,8023075,3.0908854007720947,1.527333378791809,0.9219226837158203,0.011133000254631042,-0.8217273354530334,0.0022340547293424606,-0.0023648671340197325,26.46,0.01,0.1,0.97,0.0,0.12,0.0,0.01
14.6198841999867,0,0,0,0,1,65,8023100,3.092819929122925,1.5196634531021118,0.900446891784668,-0.07077305018901825,-0.8268407583236694,0.004661836661398411,-0.0026573948562145233,26.48,0.0,0.03,1.01,0.0,0.04,0.0,0.0
14.65704689998529,0,0,0,0,1,65,8023137,3.0992326736450195,1.516595482826233,0.8687445521354675,-0.07912181317806244,-0.8360832333564758,-0.01041274331510067,0.005711815785616636,26.48,0.0,0.0,1.07,0.01,0.04,0.0,0.0
14.681960699992487,0,0,0,0,1,65,8023162,3.1034348011016846,1.516339898109436,0.8500811457633972,-0.057387977838516235,-0.8200308680534363,-0.013278413563966751,0.00016108510317280889,26.48,0.03,0.0,1.09,0.06,0.06,0.0,0.05
14.719256000011228,0,0,0,0,1,65,8023199,3.1049487590789795,1.5153173208236694,0.8280941843986511,-0.041570477187633514,-0.7527768015861511,-0.020275957882404327,0.005375830456614494,26.46,0.16,0.1,1.17,0.0,0.06,0.0,0.15
14.743895099993097,0,0,0,0,1,65,8023224,3.103815793991089,1.5058578252792358,0.8219582438468933,-0.1040106788277626,-0.6484824419021606,-0.006035656202584505,0.005608376115560532,26.46,0.0,0.14,1.1,0.0,0.01,0.0,0.0
14.78140269999858,0,0,0,0,1,65,8023261,3.1128323078155518,1.4741554260253906,0.8252817988395691,-0.33416950702667236,-0.4138740003108978,-0.0035800186451524496,0.0012739591766148806,26.46,0.0,0.34,0.92,0.0,0.03,0.0,0.0
14.805908599984832,0,0,0,0,1,65,8023286,3.126732110977173,1.4447541236877441,0.8352527618408203,-0.5196143388748169,-0.23921845853328705,-3.0189461540430784e-05,-0.003770016133785248,26.48,0.12,0.5,0.98,0.0,0.0,0.1,0.0
14.843581900000572,0,0,0,0,1,65,8023324,3.1543221473693848,1.38825261592865,0.8810164332389832,-0.832918643951416,0.20745624601840973,0.0022310588974505663,-0.001148357056081295,26.46,0.11,0.23,1.01,0.0,0.0,0.25,0.0
14.873977399984142,0,0,0,0,1,65,8023354,3.174217462539673,1.3422330617904663,0.9520909190177917,-1.0278170108795166,0.7604096531867981,-0.00265072425827384,-0.008103413507342339,26.48,0.0,0.1,1.12,0.15,0.0,0.19,0.0
14.905798099993262,0,0,0,0,1,65,8023386,3.181257963180542,1.3072071075439453,1.0546118021011353,-1.0649313926696777,1.4446715116500854,-0.00043190247379243374,-0.002311204792931676,26.46,0.01,0.11,1.17,0.15,0.08,0.07,0.0
14.931026500009466,0,0,0,0,1,65,8023411,3.1766440868377686,1.2931456565856934,1.1407703161239624,-0.9617507457733154,1.9106374979019165,0.0015194957377389073,0.0020636306144297123,26.48,0.14,0.13,1.1500000000000001,0.0,0.2,0.03,0.26
14.966763700009324,0,0,0,0,1,65,8023447,3.160691738128662,1.2831748723983765,1.2729482650756836,-0.7416578531265259,2.456946849822998,0.0005743729416280985,-0.005060435272753239,26.48,0.0,0.16,1.05,0.0,0.22,0.11,0.45
14.987959899997804,0,0,0,0,1,65,8023468,3.149334192276001,1.2755049467086792,1.35015869140625,-0.655433714389801,2.703394889831543,0.00064019177807495,-0.006595192477107048,26.46,0.11,0.21,1.01,0.0,0.24,0.18,0.48
