Time,PowerKeyState,FuncKeyState ,UpKeyState ,DownKeyState ,DeviceError ,Battery ,DeviceMs ,BackIncl ,HipAngle_L ,HipAngle_R ,HipSpeed_L ,HipSpeed_R ,HipTor_L ,HipTor_R ,Voltage ,Current ,AccX ,AccY ,AccZ ,GyroX ,GyroY ,GyroZ
0.0005046000005677342,0,0,0,0,1,64,8689072,3.2078607082366943,1.47568941116333,0.825537383556366,0.4680560827255249,-0.9861545562744141,0.01370998751372099,0.0012538260780274868,26.400000000000002,0.11,0.0,0.89,0.0,0.28,0.0,0.74
0.0005046000005677342,0,0,0,0,1,64,8689072,3.2078607082366943,1.47568941116333,0.825537383556366,0.4680560827255249,-0.9861545562744141,0.01370998751372099,0.0012538260780274868,26.400000000000002,0.11,0.0,0.89,0.0,0.28,0.0,0.74
0.0005046000005677342,0,0,0,0,1,64,8691369,3.2063450813293457,0.6501522064208984,1.446799635887146,-1.1070609092712402,-0.11495541036128998,0.00839075818657875,-0.013561165891587734,26.42,0.11,0.0,1.19,0.04,0.22,0.39,0.0
0.08634270000038669,0,0,0,0,1,64,8691401,3.2111241817474365,0.6478511691093445,1.4271135330200195,-0.8243557214736938,-0.2498946189880371,-0.00153489806689322,-0.009730048477649689,26.42,0.0,0.09,1.04,0.07,0.1,0.25,0.0
0.11124120000749826,0,0,0,0,1,64,8691426,3.2209184169769287,0.6496407389640808,1.4120292663574219,-0.6099076271057129,-0.33783599734306335,0.006993907503783703,0.0011890014866366982,26.400000000000002,0.0,0.12,1.03,0.19,0.21,0.05,0.0
0.1474210000014864,0,0,0,0,1,64,8691462,3.243485689163208,0.6675373911857605,1.389786720275879,-0.28564614057540894,-0.41855454444885254,-0.0013936315663158894,0.006167043931782246,26.400000000000002,0.0,0.03,0.97,0.0,0.32,0.0,0.0
0.16838310001185164,0,0,0,0,1,64,8691483,3.254915952682495,0.7012847065925598,1.3654985427856445,0.053778957575559616,-0.5430886745452881,-0.003699298482388258,0.0085796769708395,26.42,0.11,0.14,0.96,0.0,0.19,0.0,0.0
0.1947892000025604,0,0,0,0,1,64,8691509,3.2628538608551025,0.7646892666816711,1.3217802047729492,0.6017670035362244,-0.7972826957702637,-0.0045277029275894165,0.002588781528174877,26.42,0.0,0.19,1.07,0.0,0.13,0.0,0.0
0.22637200000463054,0,0,0,0,1,64,8691541,3.2671456336975098,0.8600518107414246,1.2637447118759155,1.2807289361953735,-1.0991191864013672,-0.005864096339792013,-0.0011846035486087203,26.42,0.0,0.17,1.1400000000000001,0.0,0.16,0.0,0.0
0.2513250000192784,0,0,0,0,1,64,8691566,3.267474412918091,0.9359838366508484,1.2282072305679321,1.6940308809280396,-1.189378023147583,-0.005579174030572176,0.00129478401504457,26.42,0.0,0.09,1.1300000000000001,0.0,0.14,0.0,0.0
0.28899010000168346,0,0,0,0,1,64,8691604,3.2653472423553467,1.0517994165420532,1.189857840538025,2.132321357727051,-1.133808970451355,0.007225789595395327,0.003554173279553652,26.42,0.0,0.09,1.11,0.01,0.0,0.0,0.07
0.32035230001201853,0,0,0,0,1,64,8691635,3.2588696479797363,1.1466504335403442,1.1614789962768555,2.383117437362671,-1.0642051696777344,-0.005070657469332218,-0.00037630763836205006,26.44,0.01,0.07,1.07,0.0,0.0,0.0,0.16
0.35237630002666265,0,0,0,0,1,64,8691667,3.2512547969818115,1.239967703819275,1.1256862878799438,2.5370030403137207,-1.0689395666122437,0.0009065725607797503,0.002053764183074236,26.42,0.03,0.01,0.93,0.0,0.0,0.0,0.15
0.3825469000148587,0,0,0,0,1,64,8691697,3.245680570602417,1.312576174736023,1.088870644569397,2.522853374481201,-1.1073156595230103,-0.0013319661375135183,0.009476929903030396,26.42,0.0,0.1,0.89,0.0,0.0,0.0,0.07
0.4133707000000868,0,0,0,0,1,64,8691728,3.24273419380188,1.3718900680541992,1.0466861724853516,2.35835862159729,-1.1710340976715088,-0.0007146950229071081,-0.0005586161278188229,26.42,0.11,0.03,0.87,0.0,0.0,0.0,0.03
0.4446930000267457,0,0,0,0,1,64,8691759,3.2413980960845947,1.4163755178451538,0.9983657002449036,2.1090688705444336,-1.2728939056396484,0.004354373551905155,0.006133421789854765,26.44,0.0,0.03,0.85,0.02,0.0,0.0,0.0
0.4750517000211403,0,0,0,0,1,64,8691790,3.2406811714172363,1.4475663900375366,0.9485114216804504,1.8073725700378418,-1.3680980205535889,0.006387322209775448,0.006872514262795448,26.44,0.0,0.01,0.92,0.0,0.0,0.0,0.0
0.5066915000206791,0,0,0,0,1,64,8691821,3.23896861076355,1.464695930480957,0.9037704467773438,1.467164397239685,-1.3980895280838013,0.00413507828488946,0.005386772565543652,26.42,0.01,0.01,0.91,0.0,0.0,0.0,0.11
0.5382243000203744,0,0,0,0,1,64,8691853,3.2347042560577393,1.4667412042617798,0.8702786564826965,1.0733060836791992,-1.3049108982086182,0.005358218215405941,0.006556086707860231,26.42,0.06,0.0,0.93,0.05,0.0,0.0,0.24
0.5624994000245351,0,0,0,0,1,64,8691877,3.2288856506347656,1.466229796409607,0.8528935313224792,0.8216400146484375,-1.1843345165252686,2.528935146983713e-05,-0.0004836462903767824,26.400000000000002,0.03,0.0,0.9,0.09,0.05,0.0,0.46
0.6010085000016261,0,0,0,0,1,64,8691916,3.212130069732666,1.4611164331436157,0.8344857096672058,0.5074519515037537,-0.9440101981163025,-0.0036880807019770145,0.00604147557169199,26.42,0.04,0.0,0.91,0.05,0.23,0.0,0.55
0.6322932000039145,0,0,0,0,1,64,8691947,3.1987502574920654,1.4501231908798218,0.8227249979972839,0.26951175928115845,-0.7787573933601379,0.0014651729725301266,-0.0034407468046993017,26.44,0.09,0.0,0.9400000000000001,0.0,0.25,0.0,0.45
0.6628803000203334,0,0,0,0,1,64,8691978,3.189401149749756,1.4427088499069214,0.8022721409797668,0.11762293428182602,-0.7322272658348083,0.005253853742033243,0.002092607319355011,26.42,0.0,0.0,0.96,0.0,0.17,0.0,0.28
0.6930797000241,0,0,0,0,1,64,8692008,3.1853692531585693,1.4419418573379517,0.7705698013305664,0.07598815113306046,-0.8090040683746338,0.009122156538069248,0.0040040891617536545,26.42,0.0,0.0,0.98,0.0,0.05,0.0,0.1
0.7244265000044834,0,0,0,0,1,64,8692039,3.1890366077423096,1.4414304494857788,0.7306861877441406,0.0566105991601944,-0.9379268884658813,0.01251637376844883,0.001998716499656439,26.42,0.01,0.0,1.05,0.03,0.0,0.0,0.0
0.7556577000068501,0,0,0,0,1,64,8692070,3.1973156929016113,1.4388738870620728,0.6948935389518738,0.022230427712202072,-1.0123618841171265,0.003635144792497158,-0.0046868654899299145,26.42,0.0,0.0,1.09,0.16,0.02,0.0,0.0
0.7863734000129625,0,0,0,0,1,64,8692101,3.202730655670166,1.426857590675354,0.6731621623039246,-0.07842860370874405,-0.9435403943061829,-0.003249713219702244,-0.002812308492138982,26.44,0.08,0.0,1.24,0.0,0.0,0.0,0.02
0.8177116000151727,0,0,0,0,1,64,8692132,3.2050507068634033,1.401802659034729,0.6708609461784363,-0.2674843370914459,-0.7158483266830444,-0.00317262951284647,-0.009267597459256649,26.42,0.0,0.13,0.97,0.0,0.03,0.0,0.0
0.8479269000235945,0,0,0,0,1,64,8692163,3.2144362926483154,1.3685665130615234,0.6777639389038086,-0.4838399291038513,-0.45554888248443604,-0.013754376210272312,0.0006437957636080682,26.44,0.0,0.35000000000000003,0.9400000000000001,0.0,0.0,0.0,0.0
0.8790710000030231,0,0,0,0,1,64,8692194,3.231666326522827,1.326637625694275,0.706653892993927,-0.7174659967422485,-0.09856054186820984,-0.007229923270642757,0.003322382690384984,26.44,0.0,0.32,1.06,0.0,0.0,0.09,0.0
0.9100396000139881,0,0,0,0,1,64,8692225,3.253887176513672,1.2772945165634155,0.7698027491569519,-0.9596086144447327,0.46207472681999207,-0.003097125329077244,0.0035014678724110126,26.42,0.08,0.07,0.9500000000000001,0.02,0.0,0.2,0.0
0.9404447000124492,0,0,0,0,1,64,8692255,3.267866849899292,1.2320421934127808,0.8580067753791809,-1.1153712272644043,1.1140940189361572,-0.0032123695127665997,-0.00010337791900383309,26.400000000000002,0.0,0.06,1.1500000000000001,0.06,0.0,0.19,0.0
0.9779547000071034,0,0,0,0,1,64,8692293,3.2687268257141113,1.1931813955307007,0.9906959533691406,-1.0993717908859253,1.888378620147705,0.00499057536944747,-0.005688094533979893,26.400000000000002,0.01,0.07,1.1400000000000001,0.0,0.05,0.18,0.12
1.012782200006768,0,0,0,0,1,64,8692328,3.2592713832855225,1.1724724769592285,1.1146926879882812,-0.9455083608627319,2.4065423011779785,0.0007691222708672285,0.003582680132240057,26.400000000000002,0.0,0.1,1.0,0.0,0.17,0.26,0.23
1.0351124000153504,0,0,0,0,1,64,8692350,3.2519690990448,1.1576439142227173,1.189857840538025,-0.8743757009506226,2.6150636672973633,-0.004841616842895746,-0.005047077313065529,26.42,0.14,0.14,0.97,0.0,0.24,0.31,0.21
1.06363760001841,0,0,0,0,1,64,8692378,3.244354248046875,1.1313108205795288,1.2847089767456055,-0.8763094544410706,2.809542655944824,-0.0016393667319789529,-0.007054997608065605,26.42,0.0,0.12,0.97,0.0,0.27,0.31,0.17
1.0939157000102568,0,0,0,0,1,64,8692409,3.238189220428467,1.0927056074142456,1.3744468688964844,-0.9701645374298096,2.8506414890289307,0.003438089042901993,-0.0024588790256530046,26.42,0.01,0.09,0.9,0.0,0.28,0.31,0.09
1.1258371000003535,0,0,0,0,1,64,8692441,3.2337701320648193,1.0459190607070923,1.4480777978897095,-1.1065702438354492,2.7027084827423096,0.000718502386007458,-0.00802293885499239,26.42,0.01,0.05,0.96,0.0,0.21,0.38,0.07
1.150680300022941,0,0,0,0,1,64,8692465,3.2308154106140137,1.007569670677185,1.4894953966140747,-1.2126458883285522,2.4956281185150146,0.0023866964038461447,-0.007752688601613045,26.42,0.11,0.08,0.92,0.0,0.17,0.39,0.04
1.1885203999991063,0,0,0,0,1,64,8692503,3.227980613708496,0.9472330212593079,1.529378890991211,-1.3400390148162842,2.0302791595458984,0.005471875425428152,0.005026725120842457,26.42,0.04,0.01,0.92,0.0,0.17,0.39,0.03
1.2207097000209615,0,0,0,0,1,64,8692535,3.225982666015625,0.8989126086235046,1.5385828018188477,-1.390480637550354,1.5450427532196045,0.0017918527591973543,0.017049094662070274,26.42,0.14,0.0,0.92,0.0,0.13,0.33,0.07
1.2447029000031762,0,0,0,0,1,64,8692559,3.223621129989624,0.8666990399360657,1.536537528038025,-1.3830891847610474,1.1801257133483887,-7.375667337328196e-05,0.02548518218100071,26.44,0.12,0.0,0.9500000000000001,0.0,0.08,0.27,0.22
1.2834453000104986,0,0,0,0,1,64,8692598,3.2118756771087646,0.8270711898803711,1.5257996320724487,-1.266015887260437,0.6934189796447754,0.0016903926152735949,0.010157065466046333,26.42,0.09,0.0,0.9400000000000001,0.0,0.0,0.16,0.52
1.3144544000097085,0,0,0,0,1,64,8692629,3.1966443061828613,0.8043171763420105,1.5058578252792358,-1.1189475059509277,0.33049729466438293,0.005728505551815033,0.0017980735283344984,26.42,0.0,0.0,0.89,0.0,0.0,0.11,0.6
1.3469764000037685,0,0,0,0,1,64,8692662,3.1803641319274902,0.7774724960327148,1.4805470705032349,-1.0190021991729736,0.005612622946500778,0.011037152260541916,0.004901557229459286,26.44,0.0,0.02,0.8,0.0,0.0,0.09,0.41000000000000003
1.3706555000098888,0,0,0,0,1,64,8692685,3.173426628112793,0.7513947486877441,1.4685310125350952,-1.0278708934783936,-0.11844810843467712,0.001816333970054984,-0.0025415620766580105,26.42,0.12,0.08,0.76,0.0,0.0,0.11,0.14
1.4097078000195324,0,0,0,0,1,64,8692724,3.175787925720215,0.6936149597167969,1.4618839025497437,-1.174423336982727,-0.14289994537830353,-0.0026681688614189625,-0.017946863546967506,26.42,0.0,0.01,0.98,0.0,0.0,0.18,0.0
1.4403650000167545,0,0,0,0,1,64,8692755,3.189098834991455,0.6473398208618164,1.4608612060546875,-1.27081298828125,-0.1077902689576149,0.004747638013213873,-0.016618669033050537,26.42,0.0,0.0,1.17,0.0,0.05,0.27,0.0
1.470813400024781,0,0,0,0,1,64,8692786,3.202039957046509,0.6143592000007629,1.4598385095596313,-1.2315356731414795,-0.07897689193487167,0.002286282368004322,-0.005872118286788464,26.44,0.01,0.0,1.32,0.0,0.2,0.29,0.0
1.5020283000194468,0,0,0,0,1,64,8692817,3.2108616828918457,0.6008090972900391,1.4501231908798218,-1.0309587717056274,-0.12937547266483307,-0.0013467776589095592,0.0014200503937900066,26.44,0.17,0.02,1.1,0.0,0.15,0.28,0.0
1.5328110000118613,0,0,0,0,1,64,8692848,3.2234737873077393,0.6023430824279785,1.4329938888549805,-0.7288423180580139,-0.24428586661815643,-0.00788140669465065,-0.005068640224635601,26.400000000000002,0.11,0.1,1.05,0.02,0.11,0.09,0.0
1.5641690000193194,0,0,0,0,1,64,8692879,3.2454214096069336,0.6146147847175598,1.4127963781356812,-0.4335825443267822,-0.35309040546417236,-0.002948361448943615,-0.0037614144384860992,26.42,0.09,0.06,0.96,0.04,0.21,0.0,0.0
1.5942772000271361,0,0,0,0,1,64,8692909,3.2644095420837402,0.6606343388557434,1.376747727394104,0.05728865787386894,-0.5572642087936401,-0.008776639588177204,-0.00424368167296052,26.42,0.14,0.19,0.89,0.09,0.05,0.0,0.0
1.6252056000230368,0,0,0,0,1,64,8692940,3.2752645015716553,0.7450032234191895,1.3197349309921265,0.7734960317611694,-0.8989946842193604,-0.004352123476564884,0.0021419525146484375,26.42,0.12,0.17,1.1,0.0,0.18,0.0,0.0
1.6566149000136647,0,0,0,0,1,64,8692971,3.2809505462646484,0.8424110412597656,1.2655340433120728,1.437180757522583,-1.154492974281311,-0.005400317255407572,-0.0017610215581953526,26.42,0.0,0.07,1.2,0.0,0.21,0.0,0.0
1.6870100000232924,0,0,0,0,1,64,8693002,3.2841670513153076,0.9357280731201172,1.232553482055664,1.88912832736969,-1.155226469039917,-0.00488539133220911,-0.00188632111530751,26.44,0.0,0.02,1.11,0.0,0.05,0.0,0.0
1.7190705000248272,0,0,0,0,1,64,8693034,3.283170223236084,1.0333915948867798,1.2110776901245117,2.211021661758423,-1.015791893005371,-0.006533805746585131,-0.006592729594558477,26.400000000000002,0.0,0.03,1.06,0.0,0.0,0.0,0.05
1.7437384000222664,0,0,0,0,1,64,8693058,3.279027223587036,1.1093236207962036,1.1919031143188477,2.4151110649108887,-0.9500804543495178,-0.004895437974482775,-0.0009043698664754629,26.42,0.0,0.07,1.0,0.0,0.0,0.0,0.15
1.7815738000208512,0,0,0,0,1,64,8693096,3.270211696624756,1.225650429725647,1.1461395025253296,2.627753496170044,-1.0144569873809814,-0.006297772284597158,0.0039142100140452385,26.42,0.09,0.07,0.9500000000000001,0.0,0.0,0.0,0.12
1.8122957000159658,0,0,0,0,1,64,8693127,3.2663440704345703,1.3049062490463257,1.1003755331039429,2.6188948154449463,-1.1393283605575562,-0.008305501192808151,0.000367332948371768,26.44,0.0,0.05,0.88,0.0,0.0,0.0,0.0
1.8436825000098906,0,0,0,0,1,64,8693158,3.2666995525360107,1.3662654161453247,1.0492429733276367,2.4480395317077637,-1.2759772539138794,-0.013008291833102703,-0.004717410076409578,26.44,0.0,0.05,0.87,0.02,0.0,0.0,0.0
1.8749819000076968,0,0,0,0,1,64,8693190,3.268793821334839,1.4125404357910156,0.9924857020378113,2.1707489490509033,-1.417317271232605,-0.007800589315593243,0.0017826196271926165,26.400000000000002,0.0,0.03,0.91,0.01,0.0,0.0,0.0
1.9002116000046954,0,0,0,0,1,64,8693215,3.2702298164367676,1.4375954866409302,0.9492785334587097,1.9087841510772705,-1.4926693439483643,-0.005754569545388222,0.004375343210995197,26.42,0.0,0.0,0.96,0.0,0.0,0.0,0.0
1.9374654999992345,0,0,0,0,1,64,8693252,3.2691917419433594,1.458815574645996,0.8953335881233215,1.4837546348571777,-1.4918113946914673,-0.004262068308889866,0.003222633386030793,26.42,0.0,0.0,0.96,0.0,0.0,0.0,0.12
1.9680493000196293,0,0,0,0,1,64,8693283,3.26375675201416,1.4629062414169312,0.8613303303718567,1.1133052110671997,-1.3854008913040161,-0.00474150013178587,0.0044416580349206924,26.42,0.14,0.0,0.96,0.02,0.04,0.02,0.33
1.9991427000204567,0,0,0,0,1,64,8693314,3.2522811889648438,1.4626506567001343,0.8339741826057434,0.7961613535881042,-1.2451260089874268,-0.004784877877682447,-0.0021746158599853516,26.400000000000002,0.09,0.0,0.9400000000000001,0.08,0.16,0.05,0.5700000000000001
2.0297178000037093,0,0,0,0,1,64,8693344,3.2362477779388428,1.4626506567001343,0.8089192509651184,0.5781484246253967,-1.1295286417007446,-0.005049415398389101,-0.001052376115694642,26.44,0.09,0.0,0.92,0.03,0.23,0.04,0.66
2.0611997000232805,0,0,0,0,1,64,8693376,3.218672275543213,1.4583044052124023,0.7820746302604675,0.38332271575927734,-1.0425738096237183,0.002693457994610071,-0.0017562201246619225,26.400000000000002,0.06,0.0,0.89,0.0,0.21,0.01,0.5
2.08578990001115,0,0,0,0,1,64,8693400,3.2099392414093018,1.450890064239502,0.759576141834259,0.23261995613574982,-1.0115225315093994,0.0012378222309052944,0.004247352480888367,26.42,0.0,0.03,0.89,0.0,0.17,0.0,0.31
2.1234688000113238,0,0,0,0,1,64,8693438,3.2053751945495605,1.4375954866409302,0.7168805003166199,0.04011206328868866,-1.040859341621399,-0.007104245945811272,-0.0003075641579926014,26.400000000000002,0.01,0.0,1.0,0.0,0.09,0.0,0.03
2.1544704000116326,0,0,0,0,1,64,8693469,3.2100541591644287,1.4278802871704102,0.6821101307868958,-0.05787903815507889,-1.0698031187057495,-0.007368583232164383,-0.004605670925229788,26.42,0.0,0.0,1.07,0.01,0.05,0.0,0.0
2.184855500003323,0,0,0,0,1,64,8693500,3.214581251144409,1.4153528213500977,0.659611701965332,-0.14790746569633484,-0.9884278178215027,-0.0035005109384655952,0.0030867261812090874,26.400000000000002,0.01,0.0,1.17,0.01,0.02,0.0,0.06
2.2164803000050597,0,0,0,0,1,64,8693531,3.2138595581054688,1.3948997259140015,0.6532201766967773,-0.2773958146572113,-0.7900354862213135,0.0021547472570091486,0.006510411389172077,26.400000000000002,0.11,0.0,1.23,0.0,0.0,0.0,0.15
2.2475094000110403,0,0,0,0,1,64,8693562,3.2138984203338623,1.3675438165664673,0.655009925365448,-0.4434628486633301,-0.5497628450393677,-0.0018312826287001371,0.01591460034251213,26.44,0.0,0.08,0.86,0.0,0.0,0.0,0.0
2.27877630002331,0,0,0,0,1,64,8693593,3.223844051361084,1.34044349193573,0.6644694209098816,-0.5636898875236511,-0.3240789473056793,-0.0065617309883236885,0.013067691586911678,26.44,0.01,0.21,1.0,0.0,0.0,0.0,0.0
2.3099420000216924,0,0,0,0,1,64,8693625,3.239351511001587,1.3061844110488892,0.7012850642204285,-0.6976280212402344,0.061288923025131226,-0.005380283575505018,0.008739055134356022,26.42,0.0,0.2,1.08,0.0,0.0,0.14,0.0
2.334869800019078,0,0,0,0,1,64,8693650,3.251966953277588,1.2724369764328003,0.7588093876838684,-0.8397089838981628,0.5438377261161804,-0.0037662165705114603,0.00024226447567343712,26.42,0.16,0.14,1.03,0.0,0.0,0.16,0.0
2.37242560001323,0,0,0,0,1,64,8693687,3.2625763416290283,1.2223268747329712,0.878459632396698,-1.0122097730636597,1.3940141201019287,-0.0061192200519144535,0.003256678581237793,26.42,0.0,0.08,1.12,0.08,0.0,0.15,0.0
2.4034796000050846,0,0,0,0,1,64,8693718,3.258974075317383,1.1916471719741821,0.9940195083618164,-1.0183748006820679,2.0445616245269775,-0.0016558654606342316,-0.0021140454337000847,26.44,0.0,0.12,1.03,0.0,0.02,0.17,0.16
2.4347062000015285,0,0,0,0,1,64,8693749,3.2500061988830566,1.1717056035995483,1.1075340509414673,-0.9191732406616211,2.506422996520996,-0.00218363874591887,-0.004595433361828327,26.400000000000002,0.0,0.14,1.01,0.0,0.16,0.3,0.23
2.4652503000106663,0,0,0,0,1,64,8693780,3.24039888381958,1.1520195007324219,1.2123562097549438,-0.8286254405975342,2.7501513957977295,-0.0005935411900281906,0.0005897557712160051,26.44,0.0,0.06,1.0,0.0,0.26,0.4,0.18
2.4956508000032045,0,0,0,0,1,64,8693810,3.233027696609497,1.1241521835327148,1.3084856271743774,-0.8437996506690979,2.8719325065612793,-0.0013778021093457937,-0.0036622362677007914,26.400000000000002,0.0,0.1,0.93,0.0,0.31,0.39,0.14
2.52655190002406,0,0,0,0,1,64,8693841,3.227511405944824,1.0855469703674316,1.3902978897094727,-0.9488005638122559,2.822817087173462,-0.003356484929099679,-0.004890015814453363,26.400000000000002,0.0,0.09,0.9,0.0,0.23,0.33,0.05
2.5570373000227846,0,0,0,0,1,64,8693872,3.224825382232666,1.0390162467956543,1.4570261240005493,-1.0940643548965454,2.6401305198669434,0.0039060371927917004,0.002006933558732271,26.400000000000002,0.11,0.03,0.92,0.0,0.15,0.3,0.04
2.5873714000044856,0,0,0,0,1,64,8693902,3.222947359085083,0.990184485912323,1.5045795440673828,-1.2371340990066528,2.3650622367858887,-0.0010859421454370022,-0.005170338321477175,26.44,0.11,0.04,0.89,0.0,0.09,0.25,0.0
2.617563000007067,0,0,0,0,1,64,8693932,3.2221498489379883,0.9421197772026062,1.5329581499099731,-1.3382271528244019,1.993727207183838,-0.0031509017571806908,-0.005811067298054695,26.400000000000002,0.0,0.06,0.9,0.0,0.08,0.24,0.0
2.6488572000234853,0,0,0,0,1,64,8693964,3.2212133407592773,0.8953332901000977,1.540372371673584,-1.3783622980117798,1.5067716836929321,-0.0005187318893149495,-0.018506528809666634,26.42,0.04,0.0,0.92,0.0,0.03,0.22,0.05
2.673879100009799,0,0,0,0,1,64,8693989,3.219170570373535,0.8641424179077148,1.5370488166809082,-1.3547892570495605,1.1243820190429688,0.00041456182952970266,-0.0010746805928647518,26.42,0.0,0.0,0.9500000000000001,0.0,0.0,0.18,0.25
2.710357500007376,0,0,0,0,1,64,8694025,3.2083258628845215,0.8316731452941895,1.5237542390823364,-1.218868613243103,0.658075213432312,0.0016227439045906067,-0.001313328044489026,26.42,0.0,0.0,0.91,0.0,0.0,0.15,0.51
2.730924800009234,0,0,0,0,1,64,8694046,3.198486566543579,0.8178672790527344,1.5091814994812012,-1.1078994274139404,0.3981606662273407,-0.004025961738079786,0.006977841258049011,26.42,0.01,0.0,0.86,0.0,0.0,0.15,0.56
2.7571830000088084,0,0,0,0,1,64,8694072,3.186006546020508,0.8007378578186035,1.487450122833252,-0.9950052499771118,0.10397516191005707,-0.005427132360637188,0.0016855767462402582,26.44,0.0,0.01,0.85,0.0,0.0,0.12,0.46
2.787909500009846,0,0,0,0,1,64,8694103,3.1758575439453125,0.7723591923713684,1.466485619544983,-0.9591509699821472,-0.12261966615915298,-0.008290337398648262,0.0037043201737105846,26.42,0.16,0.07,0.8200000000000001,0.06,0.0,0.05,0.17
2.8187402000185102,0,0,0,0,1,64,8694133,3.174933433532715,0.7319644093513489,1.4590715169906616,-1.0458623170852661,-0.16765521466732025,-0.006566987372934818,0.010322044603526592,26.42,0.12,0.05,0.89,0.02,0.0,0.1,0.0
2.8498607000219636,0,0,0,0,1,64,8694165,3.1851303577423096,0.6821101307868958,1.4593271017074585,-1.1938802003860474,-0.11444148421287537,-0.004296610131859779,0.03243336081504822,26.42,0.0,0.0,1.07,0.0,0.03,0.22,0.0
2.8751238000113517,0,0,0,0,1,64,8694190,3.19750714302063,0.645805835723877,1.4580488204956055,-1.2622356414794922,-0.09123203158378601,-0.003669214202091098,0.04200392961502075,26.44,0.0,0.0,1.22,0.0,0.07,0.29,0.0
2.911838700005319,0,0,0,0,1,64,8694227,3.2090210914611816,0.6084790229797363,1.4572817087173462,-1.1985976696014404,-0.06612668186426163,-0.0005931706400588155,0.046805158257484436,26.42,0.01,0.0,1.32,0.02,0.27,0.25,0.0
2.9429159999999683,0,0,0,0,1,64,8694258,3.2148656845092773,0.6005535125732422,1.4470552206039429,-0.9583215713500977,-0.12423663586378098,0.000490643666125834,0.019601859152317047,26.400000000000002,0.2,0.0,1.01,0.0,0.07,0.19,0.0
2.974153600021964,0,0,0,0,1,64,8694289,3.2263803482055664,0.6048997044563293,1.4283918142318726,-0.6513475775718689,-0.25241732597351074,-0.0043917326256632805,0.004924667999148369,26.42,0.06,0.13,1.0,0.13,0.15,0.05,0.0
3.000288700015517,0,0,0,0,1,64,8694315,3.24135422706604,0.6207507252693176,1.4043594598770142,-0.3708783984184265,-0.399496853351593,-0.003909119870513678,0.00799210462719202,26.42,0.01,0.07,0.93,0.1,0.3,0.0,0.0
3.031552600004943,0,0,0,0,1,64,8694346,3.2608673572540283,0.6723947525024414,1.3580843210220337,0.15894374251365662,-0.6845080852508545,-0.006571358069777489,0.008860082365572453,26.42,0.17,0.17,0.89,0.0,0.23,0.0,0.0
3.0627421000099275,0,0,0,0,1,64,8694377,3.273594379425049,0.754462718963623,1.2992817163467407,0.8353379368782043,-1.0172646045684814,-0.006337622180581093,0.003222029423341155,26.400000000000002,0.0,0.14,1.11,0.0,0.24,0.0,0.0
3.09288110001944,0,0,0,0,1,64,8694408,3.2789626121520996,0.8475243449211121,1.2491718530654907,1.4389443397521973,-1.2064101696014404,-0.006884332746267319,-0.0010162098333239555,26.42,0.09,0.07,1.25,0.0,0.27,0.0,0.0
3.1244468000077177,0,0,0,0,1,64,8694439,3.2799787521362305,0.9413526654243469,1.2167024612426758,1.8778880834579468,-1.173899531364441,-0.004277938511222601,0.005091477185487747,26.42,0.01,0.08,1.1400000000000001,0.0,0.17,0.0,0.0
3.1550352000049315,0,0,0,0,1,64,8694470,3.2771708965301514,1.0374822616577148,1.1929258108139038,2.210660696029663,-1.0584545135498047,-0.005001815035939217,-0.0006968958186917007,26.400000000000002,0.06,0.07,1.07,0.0,0.0,0.0,0.09
3.186799500021152,0,0,0,0,1,64,8694502,3.2709097862243652,1.138980507850647,1.1612234115600586,2.479214906692505,-1.020009994506836,-0.00893457978963852,-0.00022768514463678002,26.400000000000002,0.0,0.0,1.05,0.0,0.0,0.0,0.15
3.212125600024592,0,0,0,0,1,64,8694527,3.265286684036255,1.2131229639053345,1.1284984350204468,2.5986764430999756,-1.074441909790039,-0.007084981072694063,-0.002649957314133644,26.44,0.0,0.08,0.9500000000000001,0.0,0.0,0.0,0.14
3.2488172000157647,0,0,0,0,1,64,8694563,3.2607650756835938,1.30234956741333,1.0735307931900024,2.5773136615753174,-1.2117077112197876,-0.007572503294795752,-0.0026375246234238148,26.44,0.0,0.03,0.84,0.02,0.0,0.0,0.03
3.269220000016503,0,0,0,0,1,64,8694584,3.260084390640259,1.3450454473495483,1.037226676940918,2.473489999771118,-1.3110988140106201,0.0017992514185607433,0.0021512755192816257,26.42,0.0,0.07,0.89,0.01,0.0,0.0,0.0
3.295798000006471,0,0,0,0,1,64,8694610,3.260153293609619,1.3885082006454468,0.9889065623283386,2.2882590293884277,-1.4372438192367554,-0.0006134104914963245,0.0008226115605793893,26.400000000000002,0.0,0.02,0.86,0.0,0.0,0.0,0.0
3.3268108000047505,0,0,0,0,1,64,8694642,3.259336233139038,1.429925560951233,0.9313821792602539,2.0087735652923584,-1.5473777055740356,-0.003316831775009632,0.009552214294672012,26.42,0.0,0.0,0.91,0.0,0.0,0.0,0.04
3.352206200012006,0,0,0,0,1,64,8694667,3.257296323776245,1.4526796340942383,0.8912429809570312,1.763815999031067,-1.5651733875274658,-0.00486228009685874,-0.0006509881932288408,26.44,0.0,0.0,0.89,0.0,0.0,0.0,0.14
3.3888158000190742,0,0,0,0,1,64,8694704,3.2507574558258057,1.4705761671066284,0.8465020060539246,1.3593175411224365,-1.4615386724472046,0.007903676480054855,-0.00024376180954277515,26.44,0.0,0.0,0.89,0.05,0.0,0.04,0.27
3.4178797000204213,0,0,0,0,1,64,8694733,3.243645429611206,1.471854567527771,0.8206796646118164,1.0160809755325317,-1.3147116899490356,-0.0006318166269920766,0.0007294823881238699,26.44,0.17,0.0,0.9500000000000001,0.03,0.09,0.05,0.35000000000000003
3.450549000001047,0,0,0,0,1,64,8694765,3.2313413619995117,1.4705761671066284,0.7994597554206848,0.7103602290153503,-1.1315908432006836,-6.735156057402492e-05,0.004475564230233431,26.42,0.0,0.0,0.93,0.03,0.22,0.08,0.53
3.475875800009817,0,0,0,0,1,64,8694791,3.2182843685150146,1.4705761671066284,0.7871878743171692,0.5378289222717285,-0.975571870803833,0.0075927660800516605,0.0005205126944929361,26.42,0.11,0.0,0.9400000000000001,0.02,0.3,0.06,0.54
3.512362600013148,0,0,0,0,1,64,8694827,3.202568292617798,1.4705761671066284,0.7767057418823242,0.3684825003147125,-0.7602500319480896,0.0037086843512952328,0.0063227140344679356,26.400000000000002,0.03,0.0,1.05,0.0,0.23,0.0,0.5
3.5333293000003323,0,0,0,0,1,64,8694848,3.194791793823242,1.4703203439712524,0.7705698013305664,0.2950188219547272,-0.6629953384399414,0.009197259321808815,0.0007616388029418886,26.44,0.08,0.0,1.03,0.02,0.17,0.0,0.44
3.560200200008694,0,0,0,0,1,64,8694875,3.1878597736358643,1.466229796409607,0.759576141834259,0.19271813333034515,-0.5919255018234253,0.00963450688868761,0.0011846639681607485,26.400000000000002,0.0,0.0,1.05,0.0,0.1,0.0,0.22
3.5914723000023514,0,0,0,0,1,64,8694906,3.1868717670440674,1.4560033082962036,0.7398900985717773,0.050912197679281235,-0.5993099808692932,0.005128915887326002,-0.002106915693730116,26.400000000000002,0.17,0.0,1.01,0.0,0.01,0.0,0.1
3.622948100004578,0,0,0,0,1,64,8694938,3.189866542816162,1.4421974420547485,0.7145795822143555,-0.08344537764787674,-0.6527184844017029,0.002357837278395891,-0.0011364014353603125,26.42,0.11,0.0,1.02,0.04,0.0,0.0,0.07
3.6483532000274863,0,0,0,0,1,64,8694963,3.191732168197632,1.4273691177368164,0.7000067830085754,-0.19498513638973236,-0.6482610106468201,0.0023994329385459423,-0.002837932202965021,26.400000000000002,0.0,0.0,1.12,0.0,0.0,0.0,0.08
3.685554100025911,0,0,0,0,1,64,8695000,3.192995071411133,1.3972007036209106,0.693359375,-0.38932719826698303,-0.5136883854866028,-0.001933918334543705,-0.015417857095599174,26.44,0.11,0.11,0.89,0.0,0.0,0.0,0.0
3.710411000007298,0,0,0,0,1,64,8695025,3.20047926902771,1.3744467496871948,0.6956602931022644,-0.5067169070243835,-0.3748534321784973,-0.0072438595816493034,-0.028200361877679825,26.42,0.04,0.14,0.79,0.0,0.0,0.0,0.0
3.7477252000244334,0,0,0,0,1,64,8695062,3.221433401107788,1.3314952850341797,0.7276182174682617,-0.7019025087356567,-0.010341975837945938,-0.0022226020228117704,-0.009620285592973232,26.42,0.03,0.31,1.03,0.0,0.0,0.0,0.0
3.772465500020189,0,0,0,0,1,64,8695087,3.239974021911621,1.2934013605117798,0.7769613265991211,-0.8859890103340149,0.4196721911430359,0.0019512861035764217,-0.005358877591788769,26.400000000000002,0.0,0.14,1.07,0.0,0.0,0.0,0.0
3.8107739000115544,0,0,0,0,1,64,8695125,3.2629570960998535,1.2402234077453613,0.8866408467292786,-1.069052815437317,1.2123249769210815,-0.0027568505611270666,-0.004421773366630077,26.44,0.0,0.03,1.12,0.08,0.0,0.0,0.0
3.8422855000244454,0,0,0,0,1,64,8695157,3.2666614055633545,1.2121003866195679,0.9973433613777161,-1.0269408226013184,1.852235198020935,-0.004712243564426899,-0.014341367408633232,26.400000000000002,0.0,0.09,1.16,0.0,0.0,0.05,0.0
3.873501699999906,0,0,0,0,1,64,8695188,3.261643171310425,1.1965049505233765,1.1052331924438477,-0.8828454613685608,2.315613269805908,0.0017139435512945056,-0.012512626126408577,26.400000000000002,0.0,0.11,1.09,0.0,0.04,0.23,0.15
3.904335800005356,0,0,0,0,1,64,8695219,3.2533371448516846,1.1783528327941895,1.208776831626892,-0.7862718105316162,2.5965538024902344,-0.008516035042703152,-0.0070898449048399925,26.42,0.12,0.08,1.06,0.0,0.16,0.38,0.15
3.936351200012723,0,0,0,0,1,64,8695251,3.2457103729248047,1.1463948488235474,1.3107866048812866,-0.8297183513641357,2.769709348678589,-0.001926398603245616,-0.0008173924870789051,26.400000000000002,0.0,0.1,0.99,0.0,0.25,0.4,0.09
3.9603933000180405,0,0,0,0,1,64,8695275,3.24236798286438,1.113925576210022,1.3749580383300781,-0.9365324378013611,2.762986183166504,-0.008575919084250927,0.0008889073505997658,26.400000000000002,0.16,0.09,0.97,0.0,0.27,0.41000000000000003,0.01
3.998642300022766,0,0,0,0,1,64,8695313,3.2396910190582275,1.0530776977539062,1.4539581537246704,-1.1521016359329224,2.5450263023376465,0.0022207058500498533,-0.0105865728110075,26.42,0.0,0.05,0.92,0.0,0.21,0.41000000000000003,0.0
4.029792300018016,0,0,0,0,1,64,8695344,3.2392568588256836,1.000666618347168,1.4948643445968628,-1.3024852275848389,2.2176945209503174,0.00035984418354928493,-0.010603712871670723,26.44,0.0,0.0,0.91,0.0,0.15,0.42,0.0
4.061582300026203,0,0,0,0,1,64,8695376,3.2394776344299316,0.9500452876091003,1.5158287286758423,-1.3885045051574707,1.781808853149414,0.004411499947309494,-0.008238070644438267,26.42,0.0,0.0,0.9400000000000001,0.0,0.15,0.36,0.0
4.085437500005355,0,0,0,0,1,64,8695400,3.2385034561157227,0.9170646667480469,1.519152283668518,-1.4035893678665161,1.4230939149856567,0.0036325533874332905,0.01228352077305317,26.400000000000002,0.09,0.0,0.93,0.0,0.12,0.31,0.11
4.121567200025311,0,0,0,0,1,64,8695436,3.231273651123047,0.8707897067070007,1.516595721244812,-1.3544726371765137,0.9476227164268494,-0.0038114741910248995,0.019027480855584145,26.42,0.01,0.0,0.93,0.0,0.0,0.22,0.42
4.146367400011513,0,0,0,0,1,64,8695461,3.220832109451294,0.8465016484260559,1.5109710693359375,-1.2708103656768799,0.6809539794921875,0.0009271149756386876,-0.003621679963544011,26.42,0.01,0.0,0.9,0.0,0.0,0.15,0.55
4.183908400009386,0,0,0,0,1,64,8695499,3.2015304565429688,0.8150550723075867,1.4920520782470703,-1.1203137636184692,0.3001275658607483,0.006265304051339626,0.0021963121835142374,26.42,0.01,0.0,0.87,0.0,0.0,0.09,0.55
4.214818900014507,0,0,0,0,1,64,8695530,3.188164234161377,0.7859093546867371,1.4721102714538574,-1.0618832111358643,0.03821299970149994,0.006259955931454897,-0.0032878294587135315,26.42,0.0,0.07,0.8300000000000001,0.03,0.0,0.03,0.33
4.245215000002645,0,0,0,0,1,64,8695560,3.1824779510498047,0.7493494153022766,1.4593271017074585,-1.0913357734680176,-0.0949496477842331,-0.0004794810083694756,0.00021182617638260126,26.44,0.0,0.07,0.85,0.05,0.0,0.03,0.04
4.2754450000065845,0,0,0,0,1,64,8695590,3.185579538345337,0.7058868408203125,1.4572817087173462,-1.1845684051513672,-0.09632156044244766,-0.0017777305329218507,0.007269957568496466,26.400000000000002,0.0,0.0,0.97,0.0,0.0,0.12,0.0
4.308938800008036,0,0,0,0,1,64,8695624,3.1979939937591553,0.6562881469726562,1.4565147161483765,-1.2723274230957031,-0.06429484486579895,-0.003571568988263607,0.001957313157618046,26.42,0.19,0.0,1.07,0.0,0.0,0.31,0.0
4.331887600012124,0,0,0,0,1,64,8695647,3.207399845123291,0.6291877627372742,1.4560035467147827,-1.2624741792678833,-0.055959925055503845,0.0028309558983892202,-0.00022867349616717547,26.42,0.0,0.0,1.29,0.0,0.09,0.37,0.0
4.370756100019207,0,0,0,0,1,64,8695686,3.214797258377075,0.6054110527038574,1.452679991722107,-1.0652319192886353,-0.05412435531616211,0.001230384223163128,-0.01052024308592081,26.42,0.08,0.05,1.1,0.09,0.28,0.34,0.0
4.402301800000714,0,0,0,0,1,64,8695717,3.2249584197998047,0.6095016598701477,1.4373401403427124,-0.7404115796089172,-0.1649738848209381,-0.0024014711380004883,-0.002252821112051606,26.42,0.0,0.07,0.96,0.09,0.24,0.19,0.0
4.433080100017833,0,0,0,0,1,64,8695748,3.2450058460235596,0.6261197924613953,1.4140745401382446,-0.39824792742729187,-0.32059529423713684,-0.005401921924203634,0.0016183526022359729,26.42,0.0,0.1,1.0,0.07,0.37,0.0,0.0
4.464998400013428,0,0,0,0,1,64,8695780,3.2645413875579834,0.6734173893928528,1.3734241724014282,0.10300873219966888,-0.5741850137710571,-0.00629019271582365,0.002862890949472785,26.42,0.0,0.17,0.92,0.0,0.28,0.0,0.0
4.4895222000195645,0,0,0,0,1,64,8695804,3.275564432144165,0.7311973571777344,1.3302170038223267,0.5971392393112183,-0.8364353775978088,-0.005624705459922552,-0.0008468475425615907,26.42,0.06,0.16,1.12,0.0,0.28,0.0,0.0
4.5293190000229515,0,0,0,0,1,64,8695844,3.286086320877075,0.843433678150177,1.260420799255371,1.361154317855835,-1.1630922555923462,-0.0013080739881843328,-0.004522369708865881,26.42,0.0,0.07,1.17,0.0,0.24,0.0,0.0
4.558982900023693,0,0,0,0,1,64,8695874,3.289950132369995,0.9283139109611511,1.2259063720703125,1.7578672170639038,-1.176175832748413,0.0008663435583002865,-0.00016082724323496222,26.42,0.0,0.03,1.1500000000000001,0.0,0.07,0.0,0.0
4.589976400020532,0,0,0,0,1,64,8695905,3.2901086807250977,1.0167735815048218,1.1990617513656616,2.05593204498291,-1.08436119556427,0.0009111161343753338,-0.002950236201286316,26.400000000000002,0.0,0.11,1.07,0.0,0.0,0.0,0.01
4.6214003000059165,0,0,0,0,1,64,8695936,3.2855823040008545,1.108301043510437,1.1676149368286133,2.298574209213257,-1.0468432903289795,0.002218938432633877,-0.0005301774945110083,26.44,0.16,0.13,1.0,0.0,0.0,0.0,0.14
4.652121500024805,0,0,0,0,1,64,8695967,3.2784900665283203,1.194970965385437,1.127987265586853,2.4388279914855957,-1.1041215658187866,-0.002248102333396673,0.00425515603274107,26.42,0.12,0.16,0.97,0.0,0.0,0.0,0.12
4.68312450000667,0,0,0,0,1,64,8695998,3.274486780166626,1.2683463096618652,1.0855470895767212,2.426398277282715,-1.1778595447540283,-0.008065297268331051,-0.003166044596582651,26.400000000000002,0.0,0.08,0.92,0.0,0.0,0.0,0.02
4.7147651000123005,0,0,0,0,1,64,8696029,3.2733378410339355,1.3284273147583008,1.043107032775879,2.2960991859436035,-1.2317544221878052,-0.0016188026638701558,0.0015479516005143523,26.400000000000002,0.0,0.02,0.9,0.04,0.0,0.0,0.01
4.74583060000441,0,0,0,0,1,64,8696061,3.2713022232055664,1.382116675376892,0.9986216425895691,2.1165425777435303,-1.2777765989303589,-0.005371656268835068,-0.005130100063979626,26.42,0.0,0.0,0.91,0.0,0.0,0.0,0.13
4.770619000017177,0,0,0,0,1,64,8696085,3.266902446746826,1.4166311025619507,0.965129554271698,1.9702359437942505,-1.3022210597991943,-0.003140553832054138,-0.0038072748575359583,26.42,0.12,0.02,0.92,0.0,0.0,0.0,0.19
4.807812800019747,0,0,0,0,1,64,8696122,3.257673978805542,1.4567703008651733,0.9193658828735352,1.6929455995559692,-1.2862881422042847,0.0019255699589848518,-0.0014313743449747562,26.44,0.12,0.0,0.96,0.0,0.0,0.0,0.28
4.837770800018916,0,0,0,0,1,64,8696152,3.2483086585998535,1.4754337072372437,0.8902203440666199,1.4111851453781128,-1.2056530714035034,0.0012846390018239617,-0.001947206212207675,26.42,0.06,0.0,0.88,0.0,0.0,0.0,0.37
4.868853200023295,0,0,0,0,1,64,8696184,3.237701654434204,1.4813140630722046,0.8651654124259949,1.0677895545959473,-1.0846318006515503,-0.00800806563347578,-0.008978773839771748,26.400000000000002,0.01,0.0,0.89,0.03,0.06,0.0,0.42
4.89369950001128,0,0,0,0,1,64,8696208,3.2293620109558105,1.4808026552200317,0.8485472798347473,0.8226579427719116,-0.9985902309417725,-0.00952189601957798,-0.0023354515433311462,26.44,0.08,0.0,0.92,0.03,0.11,0.0,0.48
4.930957400007173,0,0,0,0,1,64,8696246,3.213250160217285,1.4795242547988892,0.8240035176277161,0.5412318110466003,-0.8810792565345764,-0.007563152350485325,-0.0004361007013358176,26.44,0.14,0.0,0.91,0.0,0.2,0.0,0.53
4.961887200013734,0,0,0,0,1,64,8696277,3.201292037963867,1.4738998413085938,0.8071295619010925,0.3417803943157196,-0.7864989638328552,-0.003536754287779331,0.0011567980982363224,26.44,0.0,0.0,0.92,0.0,0.19,0.0,0.42
4.993744200008223,0,0,0,0,1,64,8696308,3.193859100341797,1.4672523736953735,0.7866767048835754,0.1854056715965271,-0.7429705858230591,-0.0056829918175935745,-0.0002482772106304765,26.42,0.0,0.0,1.01,0.0,0.14,0.0,0.25
5.024848400003975,0,0,0,0,1,64,8696340,3.191150188446045,1.4641844034194946,0.7552299499511719,0.10192260891199112,-0.8007373809814453,-0.006052609533071518,0.0029683911707252264,26.400000000000002,0.0,0.0,1.05,0.0,0.05,0.0,0.15
5.049776600004407,0,0,0,0,1,64,8696364,3.191970109939575,1.4636732339859009,0.7273626327514648,0.07638488709926605,-0.8804959654808044,-0.010089363902807236,0.0014004935510456562,26.400000000000002,0.01,0.0,1.07,0.0,0.01,0.0,0.1
5.086710000003222,0,0,0,0,1,64,8696401,3.1939241886138916,1.4511457681655884,0.6938708424568176,-0.04087042436003685,-0.900347113609314,0.0060760630294680595,0.0023089461028575897,26.42,0.0,0.01,1.26,0.0,0.0,0.0,0.03
5.117541300016455,0,0,0,0,1,64,8696432,3.1948444843292236,1.424045443534851,0.6826216578483582,-0.25911572575569153,-0.7690470218658447,0.009406846947968006,-0.0014501932309940457,26.400000000000002,0.0,0.03,1.11,0.0,0.0,0.0,0.0
5.148686900007306,0,0,0,0,1,64,8696463,3.2005670070648193,1.3918317556381226,0.6821101307868958,-0.47979938983917236,-0.5580323934555054,0.006753354799002409,0.026084959506988525,26.400000000000002,0.06,0.1,0.9400000000000001,0.0,0.08,0.0,0.0
5.179739300016081,0,0,0,0,1,64,8696494,3.2138893604278564,1.3621748685836792,0.6877349019050598,-0.6119815707206726,-0.36396753787994385,0.003346648532897234,0.0025349799543619156,26.400000000000002,0.0,0.25,0.96,0.0,0.0,0.0,0.0
5.210261100000935,0,0,0,0,1,64,8696525,3.2304892539978027,1.3233140707015991,0.7227608561515808,-0.7740896940231323,0.010050199925899506,-0.006636100355535746,-0.0016425726935267448,26.42,0.0,0.21,0.92,0.0,0.0,0.26,0.0
5.241248400008772,0,0,0,0,1,64,8696556,3.245281457901001,1.2688575983047485,0.7997153401374817,-1.0335826873779297,0.6583936214447021,-0.005360702518373728,0.0012403903529047966,26.400000000000002,0.0,0.13,1.1400000000000001,0.0,0.0,0.33,0.0
5.2719543000275735,0,0,0,0,1,64,8696587,3.2519562244415283,1.2151683568954468,0.9027478098869324,-1.2400022745132446,1.3879754543304443,0.00515017518773675,-0.0029158166144043207,26.44,0.11,0.13,1.1,0.06,0.0,0.31,0.0
5.3026357000053395,0,0,0,0,1,64,8696617,3.2485084533691406,1.1796311140060425,1.0108932256698608,-1.2446980476379395,1.995534062385559,-0.008354319259524345,-0.0009053677204065025,26.42,0.11,0.14,1.07,0.0,0.0,0.36,0.15
5.334181800018996,0,0,0,0,1,64,8696649,3.238346815109253,1.1576439142227173,1.1190389394760132,-1.0895899534225464,2.4033169746398926,-0.0010305721079930663,-0.012814879417419434,26.42,0.17,0.16,1.0,0.0,0.08,0.53,0.23
5.358832199999597,0,0,0,0,1,64,8696673,3.2307589054107666,1.1410259008407593,1.1949710845947266,-0.9890912771224976,2.5726468563079834,0.0024698786437511444,-0.00616840086877346,26.42,0.04,0.13,0.9500000000000001,0.0,0.22,0.6,0.15
5.396714200003771,0,0,0,0,1,64,8696711,3.22269868850708,1.1021651029586792,1.3112980127334595,-0.9837006330490112,2.7327167987823486,-0.005935817025601864,-0.010880115441977978,26.42,0.01,0.14,0.9,0.0,0.29,0.55,0.05
5.426954500027932,0,0,0,0,1,64,8696742,3.2199442386627197,1.0615144968032837,1.3890196084976196,-1.0676804780960083,2.682180404663086,-0.004866729024797678,-0.010796811431646347,26.44,0.0,0.07,0.89,0.0,0.22,0.48,0.0
5.457447000022512,0,0,0,0,1,64,8696772,3.2201690673828125,1.0188188552856445,1.4485893249511719,-1.1618012189865112,2.502450942993164,-0.0026855759788304567,-0.0013275862438604236,26.400000000000002,0.0,0.07,0.92,0.0,0.15,0.46,0.0
5.488895800022874,0,0,0,0,1,64,8696804,3.2197015285491943,0.9743332862854004,1.4938416481018066,-1.2305071353912354,2.200657606124878,-0.0023808174300938845,-0.0006958880694583058,26.44,0.0,0.05,0.9500000000000001,0.0,0.13,0.43,0.0
5.515547500021057,0,0,0,0,1,64,8696830,3.2186660766601562,0.9405857920646667,1.5160843133926392,-1.2472429275512695,1.8893417119979858,0.0025754470843821764,-0.008876243606209755,26.400000000000002,0.14,0.0,0.9500000000000001,0.0,0.12,0.4,0.02
5.544324000016786,0,0,0,0,1,64,8696859,3.2160110473632812,0.9053042531013489,1.526310920715332,-1.2376031875610352,1.4952718019485474,-0.0040634386241436005,-0.007410716265439987,26.400000000000002,0.0,0.0,0.9500000000000001,0.0,0.09,0.34,0.11
5.584773400012637,0,0,0,0,1,64,8696900,3.2092363834381104,0.8618413805961609,1.5255438089370728,-1.177719235420227,0.960284948348999,-0.010547961108386517,-0.0034656531643122435,26.44,0.06,0.0,0.96,0.0,0.01,0.23,0.4
5.615051400003722,0,0,0,0,1,64,8696930,3.196218729019165,0.8393430709838867,1.5214533805847168,-1.0719058513641357,0.6717146039009094,-0.0032467241398990154,-0.017397087067365646,26.42,0.06,0.0,0.92,0.0,0.0,0.16,0.5700000000000001
5.64774660000694,0,0,0,0,1,64,8696962,3.179725170135498,0.8211910128593445,1.501511573791504,-0.926459014415741,0.3170618712902069,-0.004112347960472107,-0.0019921790808439255,26.42,0.11,0.02,0.91,0.0,0.0,0.1,0.52
5.671981400024379,0,0,0,0,1,64,8696987,3.1686670780181885,0.8048284649848938,1.4805470705032349,-0.8549836874008179,0.05068850517272949,0.0019632838666439056,-9.94047150015831e-05,26.44,0.16,0.12,0.84,0.0,0.0,0.04,0.32
5.71066830001655,0,0,0,0,1,64,8697025,3.164397716522217,0.7692912220954895,1.4567705392837524,-0.8721961975097656,-0.18692773580551147,0.002978299977257848,0.00690735038369894,26.42,0.03,0.1,0.86,0.0,0.0,0.06,0.0
5.740864899998996,0,0,0,0,1,64,8697056,3.1738455295562744,0.7352879643440247,1.4503787755966187,-0.9356293678283691,-0.199401393532753,0.0027456930838525295,0.012753291055560112,26.400000000000002,0.0,0.0,0.97,0.07,0.0,0.06,0.0
5.771817000000738,0,0,0,0,1,64,8697086,3.1895437240600586,0.7094659805297852,1.4493564367294312,-0.9272595643997192,-0.1522444784641266,0.002392580034211278,0.030067728832364082,26.42,0.0,0.0,1.17,0.03,0.01,0.12,0.0
5.803799100016477,0,0,0,0,1,64,8697118,3.1996142864227295,0.6943820118904114,1.4493564367294312,-0.8076299428939819,-0.10497042536735535,-0.002983017824590206,0.04122450575232506,26.42,0.0,0.0,1.26,0.0,0.27,0.2,0.0
5.8281269000144675,0,0,0,0,1,64,8697143,3.201543092727661,0.691058337688446,1.4460325241088867,-0.6606821417808533,-0.09966768324375153,0.0015972625697031617,0.034199122339487076,26.42,0.0,0.0,1.1,0.0,0.31,0.21,0.03
5.866737100004684,0,0,0,0,1,64,8697181,3.2092318534851074,0.6923367381095886,1.4260908365249634,-0.4326260983943939,-0.22675734758377075,0.002484183991327882,0.0058067492209374905,26.42,0.01,0.14,0.89,0.03,0.18,0.17,0.0
5.897588899999391,0,0,0,0,1,64,8697212,3.230577230453491,0.7035858035087585,1.3992462158203125,-0.22545559704303741,-0.3929818272590637,0.004846252966672182,0.007519567385315895,26.42,0.0,0.1,1.01,0.17,0.36,0.0,0.0
5.928910300019197,0,0,0,0,1,64,8697244,3.2524800300598145,0.7444918751716614,1.356039047241211,0.16977541148662567,-0.6516448855400085,-0.0052108159288764,0.008095194585621357,26.42,0.0,0.15,1.01,0.03,0.29,0.0,0.0
5.954113500018138,0,0,0,0,1,64,8697269,3.266719341278076,0.7981812357902527,1.3135989904403687,0.6030961275100708,-0.8870290517807007,0.0014529773034155369,0.002779498230665922,26.42,0.0,0.1,1.1400000000000001,0.0,0.28,0.0,0.0
5.990928800019901,0,0,0,0,1,64,8697306,3.2808125019073486,0.8935437202453613,1.2545408010482788,1.2380094528198242,-1.1275899410247803,-0.0016532700974494219,-0.0026340382173657417,26.42,0.0,0.08,1.1,0.0,0.21,0.0,0.0
6.021859100001166,0,0,0,0,1,64,8697337,3.2871828079223633,0.97919100522995,1.2159353494644165,1.661425232887268,-1.1694469451904297,-0.001261992147192359,0.008111653849482536,26.42,0.09,0.08,1.18,0.0,0.0,0.0,0.0
6.05341180000687,0,0,0,0,1,64,8697368,3.2886910438537598,1.0673948526382446,1.179631233215332,1.9866713285446167,-1.1604900360107422,0.0021976963616907597,0.005233695264905691,26.42,0.0,0.04,1.1400000000000001,0.0,0.0,0.0,0.0
6.08446890002233,0,0,0,0,1,64,8697399,3.2871015071868896,1.1550874710083008,1.1374467611312866,2.2214958667755127,-1.2068955898284912,0.002977988915517926,0.005428649950772524,26.400000000000002,0.01,0.1,1.03,0.0,0.0,0.0,0.0
6.11671010000282,0,0,0,0,1,64,8697431,3.285104274749756,1.2381781339645386,1.0883594751358032,2.3344945907592773,-1.2950952053070068,-0.005635947920382023,0.0031412006355822086,26.400000000000002,0.0,0.08,0.91,0.03,0.0,0.0,0.0
6.141086700023152,0,0,0,0,1,64,8697456,3.285144090652466,1.2921229600906372,1.0489873886108398,2.3021366596221924,-1.3602075576782227,0.0004885101225227118,0.009676453657448292,26.42,0.0,0.03,0.91,0.0,0.0,0.0,0.0
6.177519800025038,0,0,0,0,1,64,8697492,3.2861766815185547,1.3527153730392456,0.9901847839355469,2.114344835281372,-1.4393084049224854,0.00011040662502637133,0.006532090716063976,26.42,0.01,0.0,0.93,0.0,0.0,0.0,0.0
6.198209300026065,0,0,0,0,1,64,8697513,3.2857353687286377,1.3808382749557495,0.9556700587272644,1.9630752801895142,-1.4809517860412598,0.0013890938134863973,0.01007472537457943,26.400000000000002,0.0,0.0,0.93,0.0,0.0,0.0,0.03
6.224111700023059,0,0,0,0,1,64,8697539,3.283848524093628,1.4079385995864868,0.9142525792121887,1.7514289617538452,-1.5122305154800415,-0.002371267881244421,0.00016587530262768269,26.46,0.0,0.0,0.9400000000000001,0.0,0.0,0.0,0.07
6.255663000018103,0,0,0,0,1,64,8697570,3.279825210571289,1.4283918142318726,0.8736022114753723,1.454918384552002,-1.4661242961883545,-0.004993425216525793,-0.0008524794247932732,26.42,0.14,0.0,0.9500000000000001,0.0,0.0,0.0,0.22
6.286646900000051,0,0,0,0,1,64,8697601,3.271324872970581,1.4355502128601074,0.8439452052116394,1.1239172220230103,-1.3318202495574951,0.00015396904200315475,-0.005341146141290665,26.400000000000002,0.0,0.0,0.92,0.07,0.0,0.0,0.39
6.31761440000264,0,0,0,0,1,64,8697632,3.2592339515686035,1.4350389242172241,0.8232364654541016,0.8052873015403748,-1.150455117225647,0.007860854268074036,-0.002295026322826743,26.400000000000002,0.0,0.0,0.9400000000000001,0.07,0.12,0.0,0.6
6.348984100011876,0,0,0,0,1,64,8697664,3.2406363487243652,1.4342718124389648,0.8086636662483215,0.5655406713485718,-0.9505290389060974,0.0075236838310956955,0.0010009801480919123,26.42,0.0,0.0,0.92,0.03,0.24,0.0,0.73
6.37414900001022,0,0,0,0,1,64,8697689,3.2250070571899414,1.429669976234436,0.7997153401374817,0.3972899615764618,-0.8135733604431152,0.0021288376301527023,0.004195600748062134,26.42,0.0,0.0,0.96,0.0,0.27,0.0,0.68
6.410630099999253,0,0,0,0,1,64,8697725,3.2059414386749268,1.4214887619018555,0.7790066599845886,0.19848188757896423,-0.7256370782852173,-0.0017166666220873594,-0.005969369783997536,26.42,0.0,0.01,0.86,0.0,0.2,0.0,0.44
6.431176600017352,0,0,0,0,1,64,8697746,3.1989026069641113,1.4196990728378296,0.7600876688957214,0.13651560246944427,-0.7482925057411194,-0.003227934939786792,0.0022615601774305105,26.42,0.01,0.03,0.86,0.0,0.15,0.0,0.25
6.457538000016939,0,0,0,0,1,64,8697772,3.1966867446899414,1.4194434881210327,0.7311976552009583,0.10252068936824799,-0.8299031853675842,-0.004507145378738642,0.0010702081490308046,26.42,0.03,0.0,0.96,0.0,0.1,0.0,0.04
6.488660400005756,0,0,0,0,1,64,8697803,3.2016265392303467,1.4194434881210327,0.6951491236686707,0.07608388364315033,-0.9257170557975769,0.0005298659089021385,0.0031924566719681025,26.42,0.11,0.0,1.1,0.02,0.09,0.0,0.0
6.519973300019046,0,0,0,0,1,64,8697835,3.208702802658081,1.4194434881210327,0.6675373911857605,0.05594911798834801,-0.9190945625305176,-0.005565474275499582,-0.00584538746625185,26.400000000000002,0.14,0.0,1.23,0.02,0.07,0.0,0.09
6.5451983000093605,0,0,0,0,1,64,8697860,3.2093424797058105,1.4179095029830933,0.655009925365448,0.035886358469724655,-0.8348852396011353,-0.004578226711601019,-0.0007297770353034139,26.42,0.0,0.0,1.19,0.0,0.0,0.0,0.21
6.582295400003204,0,0,0,0,1,64,8697897,3.2072486877441406,1.4010356664657593,0.6555210947990417,-0.10786164551973343,-0.5735070109367371,-0.003656468354165554,0.018117887899279594,26.42,0.0,0.16,0.8,0.0,0.03,0.0,0.0
6.607273900008295,0,0,0,0,1,64,8697922,3.2159359455108643,1.3800712823867798,0.6660035252571106,-0.26712509989738464,-0.3566191494464874,-0.0022130650468170643,0.017341207712888718,26.400000000000002,0.0,0.29,0.9400000000000001,0.0,0.0,0.0,0.0
6.645493500021985,0,0,0,0,1,64,8697960,3.2380640506744385,1.3281716108322144,0.721226692199707,-0.6121557354927063,0.2021273672580719,-0.00638118851929903,-0.0006977678276598454,26.42,0.09,0.2,1.09,0.0,0.0,0.0,0.0
6.675395400001435,0,0,0,0,1,64,8697990,3.257460832595825,1.2780615091323853,0.8030388951301575,-0.9014185070991516,0.8660365343093872,0.006269913166761398,0.004405127838253975,26.42,0.09,0.03,1.21,0.0,0.0,0.09,0.0
6.7063770000240766,0,0,0,0,1,64,8698021,3.2639973163604736,1.2384337186813354,0.9053042531013489,-1.0302510261535645,1.5349842309951782,0.0007701347931288183,-0.0013090299908071756,26.42,0.2,0.07,1.22,0.0,0.0,0.18,0.0
6.738035200018203,0,0,0,0,1,64,8698053,3.2577686309814453,1.2131229639053345,1.0170291662216187,-0.9713371992111206,2.1003479957580566,0.0008311696583405137,0.00037161470390856266,26.400000000000002,0.0,0.2,1.17,0.0,0.0,0.31,0.17
6.763228800002253,0,0,0,0,1,64,8698078,3.249258279800415,1.197527527809143,1.1019096374511719,-0.8834224939346313,2.4058916568756104,0.0014086454175412655,-0.006223651114851236,26.42,0.0,0.2,1.02,0.0,0.07,0.47000000000000003,0.23
6.800340000016149,0,0,0,0,1,64,8698115,3.2375869750976562,1.1655696630477905,1.2228384017944336,-0.8584198355674744,2.674661874771118,-0.003725220914930105,-0.0024558850564062595,26.42,0.03,0.1,0.97,0.0,0.31,0.56,0.16
6.825211900024442,0,0,0,0,1,64,8698140,3.2314276695251465,1.1356569528579712,1.3005599975585938,-0.9285184741020203,2.7804203033447266,-0.0043259249068796635,-0.0024255746975541115,26.44,0.0,0.11,0.89,0.05,0.42,0.54,0.11
6.863178300001891,0,0,0,0,1,64,8698178,3.2252910137176514,1.0817121267318726,1.3979679346084595,-1.0880343914031982,2.718655824661255,-0.0031008825171738863,0.004670478869229555,26.44,0.06,0.08,0.84,0.0,0.46,0.51,0.03
6.89494410000043,0,0,0,0,1,64,8698210,3.222240686416626,1.0336471796035767,1.460349678993225,-1.2046637535095215,2.5087780952453613,0.0009170599514618516,-0.0009815163211897016,26.400000000000002,0.11,0.07,0.89,0.0,0.33,0.46,0.03
6.9202979000110645,0,0,0,0,1,64,8698235,3.220712900161743,0.9975986480712891,1.4961427450180054,-1.2642563581466675,2.267909049987793,0.002010221127420664,-0.003263512160629034,26.42,0.09,0.07,0.86,0.0,0.24,0.44,0.01
6.9563752000103705,0,0,0,0,1,64,8698271,3.2190985679626465,0.9505565762519836,1.5260553359985352,-1.2805931568145752,1.8253508806228638,0.0006637972546741366,-0.005015050992369652,26.44,0.0,0.0,0.86,0.0,0.21,0.36,0.04
6.977421600022353,0,0,0,0,1,64,8698292,3.2181384563446045,0.9270356297492981,1.532191276550293,-1.2519611120224,1.5297542810440063,0.001720961183309555,-0.002944057574495673,26.42,0.08,0.0,0.98,0.0,0.16,0.29,0.1
7.002390600013314,0,0,0,0,1,64,8698317,3.2154276371002197,0.9019805788993835,1.5324468612670898,-1.1946505308151245,1.1796972751617432,0.002180602867156267,-0.02892359532415867,26.42,0.04,0.0,1.03,0.0,0.03,0.18,0.26
7.033747300010873,0,0,0,0,1,64,8698348,3.206188440322876,0.8738576769828796,1.5314241647720337,-1.113480567932129,0.840053379535675,0.0003693871549330652,-0.03747781738638878,26.44,0.01,0.0,1.0,0.0,0.0,0.09,0.53
7.065278300025966,0,0,0,0,1,64,8698380,3.1909141540527344,0.8482912182807922,1.5204306840896606,-1.0226590633392334,0.515720546245575,0.003583478508517146,-0.016892829909920692,26.42,0.0,0.0,0.92,0.0,0.0,0.05,0.5700000000000001
7.09058640000876,0,0,0,0,1,64,8698405,3.1787352561950684,0.8270711898803711,1.5048351287841797,-0.9765130281448364,0.2574441134929657,0.006494028493762016,-0.0037774157244712114,26.400000000000002,0.0,0.03,0.86,0.0,0.0,0.0,0.44
7.1274703000090085,0,0,0,0,1,64,8698442,3.168117046356201,0.7838640213012695,1.4818254709243774,-1.0242767333984375,-0.03450969606637955,-0.0063095856457948685,-0.00032543845009058714,26.42,0.03,0.05,0.88,0.0,0.0,0.0,0.09
7.152436500007752,0,0,0,0,1,64,8698467,3.168269634246826,0.7457701563835144,1.4736442565917969,-1.1303988695144653,-0.10998640209436417,-0.003174643963575363,0.002314924029633403,26.42,0.0,0.09,0.91,0.0,0.0,0.05,0.0
7.188960800005589,0,0,0,0,1,64,8698504,3.1782615184783936,0.6859450340270996,1.4726215600967407,-1.2923716306686401,-0.0855097621679306,0.001544529339298606,-0.027015119791030884,26.42,0.14,0.0,1.07,0.0,0.0,0.19,0.0
7.214525300019886,0,0,0,0,1,64,8698529,3.1879312992095947,0.6509191393852234,1.471854567527771,-1.327784538269043,-0.07074674218893051,-0.0004970496520400047,-0.03619246557354927,26.42,0.17,0.0,1.1300000000000001,0.0,0.0,0.31,0.0
7.251230300025782,0,0,0,0,1,64,8698566,3.1944420337677,0.6161489486694336,1.4690423011779785,-1.2142555713653564,-0.06380116939544678,-0.00014896332868374884,-0.0406881719827652,26.42,0.08,0.0,1.19,0.03,0.19,0.33,0.02
7.276754100021208,0,0,0,0,1,64,8698591,3.195072889328003,0.6077120900154114,1.4583044052124023,-1.0277243852615356,-0.1328270584344864,0.0002661686157807708,-0.013357526622712612,26.44,0.03,0.03,1.07,0.0,0.18,0.26,0.0
7.312832100025844,0,0,0,0,1,64,8698628,3.20276141166687,0.6118027567863464,1.4299259185791016,-0.6638056635856628,-0.3306116759777069,0.0032466016709804535,0.002358078956604004,26.42,0.11,0.16,0.9,0.1,0.04,0.03,0.0
7.343984900013311,0,0,0,0,1,64,8698659,3.222783088684082,0.6238186955451965,1.4043594598770142,-0.3819526731967926,-0.47009167075157166,0.000957536743953824,-0.001220108475536108,26.42,0.0,0.13,1.02,0.17,0.25,0.0,0.0
7.376136000006227,0,0,0,0,1,64,8698691,3.246833562850952,0.6662589907646179,1.3685665130615234,0.06819567084312439,-0.6400314569473267,0.00040029434603638947,-0.0053103347308933735,26.400000000000002,0.01,0.13,1.0,0.01,0.28,0.0,0.0
7.400404200016055,0,0,0,0,1,64,8698715,3.2591209411621094,0.723016083240509,1.3325179815292358,0.5550695061683655,-0.8211625814437866,-0.0025930902920663357,0.0025779237039387226,26.42,0.01,0.14,1.1300000000000001,0.0,0.28,0.0,0.0
7.437748800002737,0,0,0,0,1,64,8698752,3.267246723175049,0.8339740633964539,1.2747379541397095,1.333606243133545,-1.0647649765014648,-0.003761694533750415,0.0009659791830927134,26.42,0.09,0.1,1.18,0.0,0.25,0.0,0.0
7.4698866000107955,0,0,0,0,1,64,8698785,3.2669925689697266,0.9390518069267273,1.2379223108291626,1.8831976652145386,-1.0942517518997192,-0.009666819125413895,0.00239899312146008,26.42,0.09,0.12,1.08,0.0,0.12,0.0,0.0
7.493405400018673,0,0,0,0,1,64,8698808,3.264591693878174,1.0142168998718262,1.2179807424545288,2.1730828285217285,-1.046677589416504,-0.003839971497654915,0.00319062196649611,26.44,0.0,0.1,1.07,0.0,0.0,0.0,0.08
7.531695900019258,0,0,0,0,1,64,8698846,3.2565412521362305,1.1354013681411743,1.185256004333496,2.508739709854126,-0.97586989402771,-0.004654482938349247,-0.0036535286344587803,26.42,0.01,0.09,1.0,0.0,0.0,0.0,0.2
7.563114400021732,0,0,0,0,1,64,8698878,3.2483086585998535,1.2294855117797852,1.1492071151733398,2.635870933532715,-1.009447693824768,-0.002097921911627054,0.004816185683012009,26.42,0.0,0.12,0.9,0.0,0.0,0.0,0.14
7.587630300025921,0,0,0,0,1,64,8698902,3.244694948196411,1.2890549898147583,1.1192947626113892,2.6150317192077637,-1.059436321258545,0.006183424033224583,0.006620937027037144,26.42,0.0,0.11,0.8200000000000001,0.0,0.0,0.0,0.04
7.624772900016978,0,0,0,0,1,64,8698939,3.2438454627990723,1.3621748685836792,1.0707184076309204,2.4143998622894287,-1.1358647346496582,-0.0017725068610161543,0.00310404016636312,26.42,0.01,0.03,0.88,0.0,0.0,0.0,0.0
7.655967800004873,0,0,0,0,1,64,8698971,3.2432219982147217,1.4092168807983398,1.0254663228988647,2.1488564014434814,-1.2127785682678223,-0.0009439181303605437,0.0007846796652302146,26.42,0.0,0.0,0.92,0.0,0.0,0.0,0.02
7.680507300014142,0,0,0,0,1,64,8698995,3.241950035095215,1.4363170862197876,0.9901847839355469,1.9257794618606567,-1.2684192657470703,0.0010282910661771894,0.0014099853578954935,26.42,0.0,0.03,0.9400000000000001,0.0,0.0,0.0,0.07
7.718777100002626,0,0,0,0,1,64,8699033,3.236722230911255,1.464951515197754,0.9359839558601379,1.5431886911392212,-1.3203521966934204,-0.0028954476583749056,-0.0021420472767204046,26.44,0.0,0.01,0.89,0.0,0.0,0.0,0.2
7.749885500001255,0,0,0,0,1,64,8699065,3.230044364929199,1.4741554260253906,0.8963562846183777,1.1950151920318604,-1.3046194314956665,-0.004455194808542728,0.0027063635643571615,26.42,0.06,0.0,0.92,0.0,0.01,0.02,0.3
7.77451060002204,0,0,0,0,1,64,8699089,3.223980188369751,1.4738998413085938,0.8707898259162903,0.9277210831642151,-1.2538918256759644,-0.009237519465386868,0.0004212179919704795,26.400000000000002,0.01,0.0,1.0,0.04,0.09,0.04,0.4
7.811452200025087,0,0,0,0,1,64,8699126,3.2086679935455322,1.4692977666854858,0.8372980952262878,0.589581310749054,-1.1405682563781738,-0.008192547596991062,0.00671826396137476,26.400000000000002,0.16,0.0,1.0,0.0,0.07,0.05,0.64
7.841193700005533,0,0,0,0,1,64,8699156,3.192140817642212,1.4501231908798218,0.8158223032951355,0.2754885256290436,-1.0289385318756104,-0.004808060359209776,-0.0011398247443139553,26.400000000000002,0.01,0.02,0.78,0.05,0.07,0.0,0.58
7.871895700023742,0,0,0,0,1,64,8699187,3.180356025695801,1.4194434881210327,0.79460209608078,-0.07623240351676941,-0.9263579845428467,0.0007833960698917508,0.0001664934679865837,26.42,0.0,0.16,0.78,0.05,0.16,0.0,0.13
7.902333900012309,0,0,0,0,1,64,8699217,3.1801860332489014,1.4010356664657593,0.7646894454956055,-0.24319219589233398,-0.928966224193573,0.00039240659680217505,-0.0005192097742110491,26.42,0.14,0.04,0.96,0.0,0.12,0.0,0.0
7.933542800019495,0,0,0,0,1,64,8699248,3.188868284225464,1.4000129699707031,0.7214822769165039,-0.1975088119506836,-1.0500903129577637,0.005346675869077444,-0.004802166484296322,26.42,0.0,0.0,1.02,0.0,0.09,0.0,0.0
7.96426100001554,0,0,0,0,1,64,8699279,3.2034687995910645,1.4000129699707031,0.6777639389038086,-0.13290348649024963,-1.1584837436676025,0.01165039837360382,-0.0035942343529313803,26.42,0.0,0.0,1.18,0.03,0.09,0.0,0.0
7.995536700007506,0,0,0,0,1,64,8699310,3.2099876403808594,1.3995018005371094,0.6465730667114258,-0.09813275933265686,-1.1311708688735962,0.010536951012909412,0.0045129600912332535,26.400000000000002,0.01,0.0,1.32,0.0,0.02,0.0,0.09
8.026738300017314,0,0,0,0,1,64,8699341,3.20759916305542,1.3869742155075073,0.6350682377815247,-0.16141723096370697,-0.9446886777877808,0.005493613891303539,0.0003220312646590173,26.42,0.0,0.13,1.03,0.0,0.06,0.0,0.0
8.057351900002686,0,0,0,0,1,64,8699372,3.2131776809692383,1.3634532690048218,0.6406927108764648,-0.3225855827331543,-0.636619508266449,0.0006401868304237723,0.005035745445638895,26.400000000000002,0.0,0.16,1.0,0.0,0.05,0.0,0.0
8.088874000008218,0,0,0,0,1,64,8699404,3.2259328365325928,1.3307281732559204,0.6690714955329895,-0.5125923156738281,-0.22626276314258575,0.002250692341476679,-0.004741506185382605,26.44,0.12,0.25,1.05,0.0,0.0,0.03,0.0
8.113664300006349,0,0,0,0,1,64,8699428,3.2376513481140137,1.298258900642395,0.7191813588142395,-0.6917814612388611,0.24562324583530426,0.002163196448236704,0.0007271821377798915,26.400000000000002,0.09,0.17,1.05,0.0,0.0,0.12,0.0
8.151078700000653,0,0,0,0,1,64,8699466,3.2505247592926025,1.2422685623168945,0.8401101231575012,-0.9546383619308472,1.1976693868637085,0.0008104760781861842,-0.005452328361570835,26.42,0.0,0.09,1.17,0.03,0.0,0.09,0.0
8.182448800012935,0,0,0,0,1,64,8699497,3.2490477561950684,1.2069870233535767,0.9566926956176758,-1.0197367668151855,1.9019122123718262,-0.0077995616011321545,0.0029694675467908382,26.42,0.01,0.09,1.1400000000000001,0.01,0.0,0.06,0.13
8.212915500014788,0,0,0,0,1,64,8699528,3.2397921085357666,1.183977484703064,1.0727638006210327,-0.9519843459129333,2.430144786834717,-0.006961784791201353,-0.000940868048928678,26.42,0.16,0.19,1.0,0.0,0.01,0.12,0.24
8.244292000017595,0,0,0,0,1,64,8699559,3.2292611598968506,1.163012981414795,1.178097128868103,-0.8638652563095093,2.710498571395874,-0.0028816198464483023,0.002213450148701668,26.400000000000002,0.08,0.14,0.9400000000000001,0.0,0.18,0.28,0.2
8.2750623000029,0,0,0,0,1,64,8699590,3.221627950668335,1.1338672637939453,1.2785730361938477,-0.872734010219574,2.8551533222198486,0.006207090802490711,0.002239618916064501,26.42,0.0,0.12,0.89,0.0,0.32,0.34,0.13
8.306713600002695,0,0,0,0,1,64,8699621,3.2171528339385986,1.0950064659118652,1.3634532690048218,-0.9691476225852966,2.834522008895874,0.008342301473021507,0.0017804629169404507,26.400000000000002,0.03,0.0,0.92,0.0,0.32,0.36,0.0
8.337859100021888,0,0,0,0,1,64,8699653,3.215816020965576,1.0510324239730835,1.4309486150741577,-1.0848461389541626,2.6341919898986816,0.013205837458372116,0.001509066903963685,26.42,0.01,0.1,0.88,0.0,0.21,0.36,0.0
8.362729400017997,0,0,0,0,1,64,8699677,3.2164223194122314,1.017284870147705,1.4669970273971558,-1.1555469036102295,2.3963401317596436,0.009928678162395954,0.0038815182633697987,26.400000000000002,0.0,0.03,0.91,0.0,0.13,0.36,0.0
8.401112899999134,0,0,0,0,1,64,8699716,3.217247247695923,0.9646180272102356,1.504323959350586,-1.2201799154281616,1.9170533418655396,0.008793937042355537,-0.004635482095181942,26.400000000000002,0.16,0.01,0.89,0.0,0.1,0.34,0.01
8.432341400010046,0,0,0,0,1,64,8699747,3.2156832218170166,0.9229450225830078,1.5171070098876953,-1.251956820487976,1.505565881729126,0.008331960067152977,-0.0046516419388353825,26.400000000000002,0.12,0.0,0.92,0.0,0.1,0.3,0.08
8.46389710000949,0,0,0,0,1,64,8699779,3.2124242782592773,0.8817831873893738,1.516595721244812,-1.2616698741912842,1.07241690158844,0.012855526991188526,0.007313844747841358,26.44,0.09,0.0,0.9500000000000001,0.0,0.03,0.24,0.23
8.488832400005776,0,0,0,0,1,64,8699803,3.206439971923828,0.8539158701896667,1.5140390396118164,-1.2422504425048828,0.8096867799758911,0.009674377739429474,-0.017553487792611122,26.42,0.0,0.0,0.92,0.0,0.0,0.19,0.41000000000000003
8.526452800026163,0,0,0,0,1,64,8699841,3.1913888454437256,0.8165890574455261,1.4979323148727417,-1.1570746898651123,0.41407617926597595,0.0034184472169727087,-0.0024335570633411407,26.42,0.0,0.0,0.89,0.0,0.0,0.17,0.48
8.556576900009532,0,0,0,0,1,64,8699871,3.1790997982025146,0.788977324962616,1.4756895303726196,-1.0905364751815796,0.10777687281370163,-0.0006450713844969869,0.003804905340075493,26.42,0.0,0.06,0.86,0.01,0.0,0.1,0.4
8.587492000020575,0,0,0,0,1,64,8699902,3.1705751419067383,0.7552297711372375,1.4542137384414673,-1.079314947128296,-0.12689048051834106,-0.004586715716868639,-0.006037878803908825,26.42,0.12,0.07,0.85,0.01,0.0,0.0,0.11
8.617830300005153,0,0,0,0,1,64,8699932,3.171961784362793,0.715601921081543,1.4434760808944702,-1.1382306814193726,-0.19921272993087769,-6.56196498312056e-05,0.0025346563197672367,26.42,0.01,0.03,0.89,0.0,0.0,0.0,0.0
8.649093800020637,0,0,0,0,1,64,8699964,3.182865619659424,0.6677929759025574,1.445265769958496,-1.2355215549468994,-0.12690693140029907,0.0029787481762468815,-0.007705403957515955,26.42,0.0,0.0,1.03,0.0,0.0,0.11,0.0
8.673952200013446,0,0,0,0,1,64,8699989,3.1966898441314697,0.634556770324707,1.4465440511703491,-1.2658052444458008,-0.07936219871044159,0.004550092853605747,-0.025431716814637184,26.400000000000002,0.04,0.0,1.2,0.0,0.01,0.21,0.0
8.711457199999131,0,0,0,0,1,64,8700026,3.2119858264923096,0.5990193486213684,1.4450098276138306,-1.18080472946167,-0.061480604112148285,-0.004408125299960375,-0.036787401884794235,26.42,0.0,0.0,1.24,0.0,0.16,0.32,0.0
8.742071400018176,0,0,0,0,1,64,8700057,3.2171261310577393,0.5895598530769348,1.442708969116211,-0.9579251408576965,-0.05777701362967491,0.007416273932904005,-0.035403672605752945,26.44,0.17,0.13,0.97,0.06,0.16,0.25,0.0
8.774045600002864,0,0,0,0,1,64,8700089,3.2314302921295166,0.6005535125732422,1.429669976234436,-0.5984349846839905,-0.14490224421024323,0.003675478510558605,-0.001168903661891818,26.42,0.11,0.1,1.03,0.19,0.28,0.06,0.0
8.799046300002374,0,0,0,0,1,64,8700114,3.2471556663513184,0.6235631108283997,1.410495400428772,-0.2661629021167755,-0.2736246883869171,-0.0005747646209783852,-0.007097122259438038,26.42,0.11,0.1,0.96,0.12,0.47000000000000003,0.0,0.0
8.836531300010392,0,0,0,0,1,64,8700151,3.267700672149658,0.6954047083854675,1.3580843210220337,0.41923123598098755,-0.6208221912384033,-0.0028933833818882704,0.0017925931606441736,26.42,0.06,0.17,1.04,0.0,0.38,0.0,0.0
8.867494900012389,0,0,0,0,1,64,8700182,3.278531312942505,0.7761940956115723,1.304139494895935,1.02601957321167,-0.9390785098075867,-0.0034732986241579056,0.010163752362132072,26.42,0.0,0.19,1.18,0.0,0.28,0.0,0.0
8.898807400022633,0,0,0,0,1,64,8700213,3.2850401401519775,0.858773410320282,1.259142518043518,1.4877153635025024,-1.0945736169815063,-0.010843542404472828,0.004046986810863018,26.42,0.12,0.11,1.19,0.0,0.1,0.0,0.0
8.929390700010117,0,0,0,0,1,64,8700244,3.2882986068725586,0.9428866505622864,1.2248836755752563,1.8197695016860962,-1.1039236783981323,-0.004846188705414534,0.0024104081094264984,26.42,0.04,0.05,1.19,0.0,0.0,0.0,0.0
8.961299600021448,0,0,0,0,1,64,8700276,3.2865641117095947,1.0359482765197754,1.1906248331069946,2.115366220474243,-1.0845164060592651,-0.012250427156686783,-0.004930443596094847,26.42,0.14,0.03,1.07,0.0,0.0,0.0,0.07
8.985873400000855,0,0,0,0,1,64,8700300,3.281811475753784,1.108301043510437,1.1594337224960327,2.3146274089813232,-1.121082067489624,-0.009171570651233196,-0.003989167977124453,26.42,0.0,0.09,1.01,0.0,0.0,0.0,0.19
9.022202700027265,0,0,0,0,1,64,8700337,3.2725377082824707,1.2092881202697754,1.1062558889389038,2.4603354930877686,-1.2183834314346313,1.7320955521427095e-05,0.006394853349775076,26.400000000000002,0.0,0.07,0.88,0.02,0.0,0.0,0.2
9.053457300004084,0,0,0,0,1,64,8700368,3.2656445503234863,1.2737153768539429,1.0617704391479492,2.365800142288208,-1.277625560760498,0.004509929101914167,0.00384253216907382,26.42,0.19,0.06,0.81,0.03,0.0,0.0,0.16
9.084653300000355,0,0,0,0,1,64,8700399,3.260707378387451,1.3189677000045776,1.0175405740737915,2.1226918697357178,-1.3188316822052002,-0.0032444007229059935,0.004626304376870394,26.42,0.0,0.07,0.92,0.0,0.0,0.0,0.06
9.11613850001595,0,0,0,0,1,64,8700431,3.257890224456787,1.3527153730392456,0.9712654948234558,1.8186646699905396,-1.353716254234314,0.0004210390616208315,-0.0008056014776229858,26.42,0.12,0.0,0.89,0.0,0.0,0.0,0.07
9.141117900027893,0,0,0,0,1,64,8700456,3.25545597076416,1.3734240531921387,0.9364954829216003,1.5899993181228638,-1.3643794059753418,-0.0026176823303103447,-0.004269263707101345,26.400000000000002,0.09,0.02,0.84,0.0,0.0,0.06,0.1
9.177477900026133,0,0,0,0,1,64,8700492,3.251400947570801,1.3948997259140015,0.8948221206665039,1.2804325819015503,-1.306587815284729,-0.00019088637782260776,-0.003269813023507595,26.42,0.09,0.0,0.85,0.0,0.0,0.1,0.19
9.198196800018195,0,0,0,0,1,64,8700513,3.2480292320251465,1.403080940246582,0.8761587142944336,1.105668544769287,-1.2271682024002075,-0.003621475538238883,-0.0026221610605716705,26.400000000000002,0.0,0.0,0.93,0.03,0.05,0.08,0.24
9.2232684000046,0,0,0,0,1,64,8700538,3.24296236038208,1.4094724655151367,0.8572397232055664,0.9116687178611755,-1.1177551746368408,0.0032537998631596565,-0.005577728617936373,26.42,0.04,0.0,0.99,0.02,0.08,0.04,0.33
9.254504600015935,0,0,0,0,1,64,8700569,3.2343313694000244,1.4150972366333008,0.8321847915649414,0.7097326517105103,-1.0229545831680298,-0.009692536666989326,0.0006101273465901613,26.400000000000002,0.0,0.0,1.01,0.0,0.07,0.01,0.43
9.28551410001819,0,0,0,0,1,64,8700600,3.222987413406372,1.4173980951309204,0.8015050888061523,0.5374621748924255,-1.0065292119979858,0.0031060208566486835,0.002572661032900214,26.400000000000002,0.01,0.0,0.9500000000000001,0.02,0.07,0.01,0.44
9.31586130001233,0,0,0,0,1,64,8700631,3.2130234241485596,1.4173980951309204,0.7657120823860168,0.3861607611179352,-1.041237711906433,0.013223149813711643,0.0044301580637693405,26.42,0.0,0.0,0.9,0.09,0.12,0.0,0.33
9.346750800003065,0,0,0,0,1,64,8700661,3.2074646949768066,1.4171425104141235,0.72991943359375,0.27868759632110596,-1.0838918685913086,0.023450305685400963,-0.0013555472251027822,26.42,0.01,0.0,0.92,0.02,0.18,0.0,0.18
9.377484200027538,0,0,0,0,1,64,8700692,3.2065675258636475,1.4166311025619507,0.6959161758422852,0.19680970907211304,-1.0922775268554688,0.019771702587604523,-0.000621589133515954,26.400000000000002,0.0,0.0,1.07,0.0,0.1,0.0,0.11
9.408947600022657,0,0,0,0,1,64,8700724,3.208017110824585,1.4166311025619507,0.6688156127929688,0.14109893143177032,-1.0298717021942139,0.01947564072906971,-0.0027107857167720795,26.42,0.03,0.0,1.11,0.0,0.0,0.0,0.15
9.434130800014827,0,0,0,0,1,64,8700749,3.2078144550323486,1.4163755178451538,0.6552655100822449,0.10758452862501144,-0.9280522465705872,0.023237600922584534,-0.002353666815906763,26.400000000000002,0.04,0.0,1.19,0.05,0.0,0.0,0.23
9.47156500001438,0,0,0,0,1,64,8700786,3.2000434398651123,1.4076828956604004,0.6483628153800964,0.009480487555265427,-0.6967253088951111,0.012235629372298717,0.004374140407890081,26.400000000000002,0.0,0.09,1.03,0.0,0.0,0.0,0.16
9.50263700002688,0,0,0,0,1,64,8700817,3.2012405395507812,1.38825261592865,0.6519419550895691,-0.1598803699016571,-0.4682667851448059,0.010814067907631397,-0.018293889239430428,26.42,0.03,0.16,0.8200000000000001,0.0,0.0,0.0,0.0
9.534053400013363,0,0,0,0,1,64,8700849,3.214301824569702,1.3585954904556274,0.6713724136352539,-0.36848264932632446,-0.18472431600093842,0.0012491809902712703,-0.007876677438616753,26.42,0.06,0.32,1.03,0.0,0.0,0.0,0.0
9.559275100007653,0,0,0,0,1,64,8700874,3.2295572757720947,1.3276602029800415,0.709466278553009,-0.5626868009567261,0.17936816811561584,8.521968265995383e-05,-0.0021508820354938507,26.42,0.09,0.16,1.09,0.0,0.0,0.15,0.0
9.595292400015751,0,0,0,0,1,64,8700910,3.249074935913086,1.281640887260437,0.8035504221916199,-0.7951758503913879,0.9134663939476013,-0.0037898155860602856,-0.0025251873303204775,26.400000000000002,0.0,0.03,1.18,0.0,0.0,0.25,0.0
9.616304900002433,0,0,0,0,1,64,8700931,3.2523515224456787,1.2591423988342285,0.8715569376945496,-0.8567174673080444,1.3687727451324463,-0.004885869566351175,2.2435287974076346e-05,26.42,0.0,0.08,1.11,0.03,0.0,0.27,0.0
9.642946900014067,0,0,0,0,1,64,8700958,3.2486774921417236,1.2366441488265991,0.9689645767211914,-0.8568524122238159,1.9148584604263306,-0.008021550253033638,0.00243971636518836,26.42,0.16,0.2,1.09,0.0,0.0,0.32,0.19
9.673302000010153,0,0,0,0,1,64,8700988,3.2388525009155273,1.2154239416122437,1.0794111490249634,-0.8129419088363647,2.4007654190063477,0.003958480898290873,-0.0008817563066259027,26.42,0.12,0.16,1.03,0.0,0.04,0.36,0.22
9.70467410000856,0,0,0,0,1,64,8701019,3.2295312881469727,1.1903690099716187,1.183977484703064,-0.8024450540542603,2.6814401149749756,0.002610564697533846,-0.0002712056739255786,26.42,0.14,0.19,0.96,0.0,0.17,0.36,0.12
9.7367157000117,0,0,0,0,1,64,8701051,3.224116802215576,1.1540647745132446,1.2862430810928345,-0.8843997120857239,2.82456111907959,-0.007092450279742479,0.006997435353696346,26.42,0.0,0.14,0.89,0.0,0.26,0.35000000000000003,0.02
9.761310900008539,0,0,0,0,1,64,8701076,3.2225801944732666,1.1187831163406372,1.3550163507461548,-0.9943933486938477,2.8183937072753906,-0.002913209144026041,0.0029176105745136738,26.42,0.12,0.1,0.89,0.0,0.25,0.32,0.0
9.798896200023592,0,0,0,0,1,64,8701114,3.2220304012298584,1.059213638305664,1.4378513097763062,-1.183249592781067,2.613314151763916,-0.00422081770375371,0.0017671998357400298,26.42,0.0,0.11,0.85,0.0,0.2,0.33,0.0
9.831155300023966,0,0,0,0,1,64,8701146,3.2218503952026367,1.0055242776870728,1.4900068044662476,-1.3231608867645264,2.3373422622680664,0.0014417526545003057,-0.001301005482673645,26.42,0.01,0.07,0.89,0.0,0.17,0.32,0.0
9.856264900008682,0,0,0,0,1,64,8701171,3.2216923236846924,0.9648737907409668,1.5171070098876953,-1.3936829566955566,2.0621707439422607,0.002831397345289588,-0.0011112442007288337,26.42,0.08,0.03,0.92,0.0,0.18,0.3,0.0
9.892160300019896,0,0,0,0,1,64,8701207,3.22048020362854,0.9122071266174316,1.5344921350479126,-1.419694185256958,1.5764083862304688,0.0023118657991290092,-0.014423411339521408,26.42,0.0,0.0,1.0,0.0,0.16,0.23,0.09
9.913448300008895,0,0,0,0,1,64,8701228,3.218296527862549,0.8856180310249329,1.5342365503311157,-1.3930659294128418,1.2650887966156006,0.005528104957193136,-0.009201555512845516,26.400000000000002,0.0,0.0,1.01,0.0,0.14,0.19,0.22
9.938794900022913,0,0,0,0,1,64,8701253,3.211764097213745,0.858006477355957,1.530657172203064,-1.327926754951477,0.9383737444877625,0.004762475844472647,-0.0232224203646183,26.42,0.09,0.0,0.98,0.0,0.03,0.12,0.48
9.969781100022374,0,0,0,0,1,64,8701284,3.1962392330169678,0.8314173817634583,1.5171070098876953,-1.2020899057388306,0.5667983293533325,0.003675041953101754,-0.005306153558194637,26.42,0.0,0.0,0.92,0.0,0.0,0.04,0.6900000000000001
10.000722600001609,0,0,0,0,1,64,8701315,3.176959991455078,0.8073851466178894,1.4917963743209839,-1.0781595706939697,0.19038766622543335,0.003498188452795148,-0.005086136981844902,26.42,0.12,0.04,0.78,0.0,0.0,0.0,0.61
10.032020900020143,0,0,0,0,1,64,8701347,3.162816286087036,0.7759385108947754,1.4641847610473633,-1.0365748405456543,-0.11887183040380478,0.00016140652587637305,-0.0006396204698830843,26.42,0.11,0.2,0.7000000000000001,0.1,0.0,0.0,0.18
10.057390400004806,0,0,0,0,1,64,8701372,3.161461114883423,0.7419352531433105,1.4516572952270508,-1.0974005460739136,-0.22140076756477356,0.0003967017401009798,-0.003195650177076459,26.42,0.0,0.18,0.8,0.07,0.0,0.0,0.0
10.093515100015793,0,0,0,0,1,64,8701408,3.1771700382232666,0.6831328272819519,1.4544693231582642,-1.2640825510025024,-0.13560648262500763,0.0016276363749057055,0.0072809807024896145,26.400000000000002,0.0,0.0,1.07,0.0,0.0,0.01,0.0
10.114320900000166,0,0,0,0,1,64,8701429,3.1912968158721924,0.6506633758544922,1.4585599899291992,-1.3297879695892334,-0.0638873502612114,-0.0033505328465253115,0.001267571235075593,26.44,0.01,0.0,1.1500000000000001,0.0,0.03,0.14,0.0
10.139644700015197,0,0,0,0,1,64,8701454,3.2043395042419434,0.6215178370475769,1.457537293434143,-1.3089830875396729,-0.04226428642868996,-0.0029307049699127674,0.023236878216266632,26.42,0.09,0.0,1.3900000000000001,0.0,0.12,0.28,0.0
10.170735899999272,0,0,0,0,1,64,8701485,3.212284803390503,0.6036214828491211,1.4529355764389038,-1.1257729530334473,-0.06723888963460922,0.0024916725233197212,-0.00463470071554184,26.42,0.14,0.0,1.24,0.02,0.17,0.32,0.0
10.20199660002254,0,0,0,0,1,64,8701517,3.2156147956848145,0.6079676747322083,1.4391298294067383,-0.7798738479614258,-0.1605602502822876,-0.0030386599246412516,0.008215116336941719,26.42,0.0,0.01,1.03,0.17,0.09,0.1,0.0
10.227358900010586,0,0,0,0,1,64,8701542,3.2250173091888428,0.6202395558357239,1.4245567321777344,-0.4915037453174591,-0.25795990228652954,-3.571969864424318e-05,0.0036194343119859695,26.42,0.0,0.06,1.11,0.14,0.18,0.0,0.0
10.264981300017098,0,0,0,0,1,64,8701580,3.2375943660736084,0.6662589907646179,1.3915764093399048,0.04379630833864212,-0.4428654611110687,-0.005096609704196453,-0.000996805145405233,26.42,0.11,0.14,0.96,0.0,0.2,0.0,0.0
10.296299300011015,0,0,0,0,1,64,8701611,3.244805097579956,0.7401455044746399,1.3465795516967773,0.6662248969078064,-0.7080439329147339,-0.004229815676808357,0.0031120525673031807,26.42,0.12,0.28,1.0,0.0,0.09,0.0,0.0
10.327463300025556,0,0,0,0,1,64,8701642,3.2497429847717285,0.8360193371772766,1.294168472290039,1.3337280750274658,-0.9837075471878052,-0.009849184192717075,0.008033090271055698,26.42,0.09,0.1,1.11,0.0,0.11,0.0,0.0
10.358939700003248,0,0,0,0,1,64,8701674,3.2513959407806396,0.9416084289550781,1.2514728307724,1.8971892595291138,-1.102347731590271,-0.0022162985987961292,0.005705136805772781,26.42,0.2,0.0,1.1,0.0,0.06,0.0,0.0
10.383507000020472,0,0,0,0,1,64,8701698,3.249819040298462,1.0193300247192383,1.2282072305679321,2.1986098289489746,-1.0803345441818237,-0.0026009012944996357,0.00025296228704974055,26.44,0.0,0.09,1.0,0.0,0.0,0.0,0.06
10.420981300005224,0,0,0,0,1,64,8701736,3.2434592247009277,1.13872492313385,1.1957381963729858,2.506274938583374,-0.996795654296875,0.0022730515338480473,0.004822111688554287,26.400000000000002,0.0,0.14,0.97,0.01,0.0,0.0,0.15
10.452070400002412,0,0,0,0,1,64,8701767,3.235966920852661,1.2320421934127808,1.157644271850586,2.647711753845215,-1.041150689125061,-0.00029741667094640434,0.0016540430951863527,26.400000000000002,0.0,0.14,0.88,0.03,0.0,0.0,0.12
10.482785600004718,0,0,0,0,1,64,8701797,3.2318336963653564,1.3115534782409668,1.1129032373428345,2.6561708450317383,-1.1578491926193237,-0.00998581200838089,0.004194342531263828,26.400000000000002,0.01,0.11,0.89,0.01,0.0,0.0,0.0
10.51322770002298,0,0,0,0,1,64,8701828,3.2323813438415527,1.3736796379089355,1.0643268823623657,2.490164041519165,-1.271941065788269,-0.0011698019225150347,0.0034577599726617336,26.42,0.08,0.07,0.91,0.0,0.0,0.0,0.0
10.54434079999919,0,0,0,0,1,64,8701859,3.2354838848114014,1.4171425104141235,1.0147281885147095,2.1981232166290283,-1.3606771230697632,-0.003763866610825062,0.003068472258746624,26.42,0.14,0.0,0.92,0.02,0.0,0.0,0.0
10.575295900023775,0,0,0,0,1,64,8701890,3.237914562225342,1.4465436935424805,0.9671748280525208,1.8549309968948364,-1.4113810062408447,-0.009103252552449703,0.010936746373772621,26.400000000000002,0.01,0.0,0.9400000000000001,0.0,0.0,0.0,0.0
10.606434900022577,0,0,0,0,1,64,8701921,3.2372872829437256,1.4639288187026978,0.9224338531494141,1.4998010396957397,-1.4209380149841309,-0.0006623780354857445,0.0012915423139929771,26.42,0.0,0.0,0.89,0.0,0.0,0.0,0.08
10.637568700010888,0,0,0,0,1,64,8701952,3.2333693504333496,1.4705761671066284,0.8858740925788879,1.1442861557006836,-1.363762378692627,0.006181112956255674,0.003157586557790637,26.42,0.0,0.0,0.89,0.02,0.0,0.01,0.24
10.66945630000555,0,0,0,0,1,64,8701984,3.225252628326416,1.4700647592544556,0.8554499745368958,0.8120521903038025,-1.245192527770996,0.010598907247185707,-0.0015949630178511143,26.42,0.0,0.0,0.89,0.03,0.12,0.07,0.49
10.693609600013588,0,0,0,0,1,64,8702008,3.2145848274230957,1.4698091745376587,0.8362753987312317,0.62770015001297,-1.1474941968917847,0.014346032403409481,0.005217484198510647,26.42,0.14,0.0,0.88,0.07,0.2,0.09,0.59
10.731323800020618,0,0,0,0,1,64,8702046,3.1949985027313232,1.4644402265548706,0.8094307780265808,0.3810913562774658,-1.001457691192627,0.007425548508763313,0.0011194123653694987,26.42,0.14,0.0,0.89,0.03,0.25,0.06,0.5
10.76257110000006,0,0,0,0,1,64,8702077,3.184011459350586,1.4552364349365234,0.7859096527099609,0.19218377768993378,-0.9246020317077637,0.007452748715877533,0.000341024249792099,26.400000000000002,0.0,0.02,0.92,0.0,0.19,0.0,0.26
10.793484300025739,0,0,0,0,1,64,8702108,3.1808292865753174,1.4485889673233032,0.7567641139030457,0.077021025121212,-0.9237263202667236,0.0075182924047112465,0.0122775724157691,26.400000000000002,0.12,0.0,0.99,0.0,0.1,0.0,0.03
10.824761700001545,0,0,0,0,1,64,8702139,3.185933828353882,1.4444984197616577,0.7240390777587891,0.01953323930501938,-0.9604515433311462,-8.428239380009472e-05,0.000733652210328728,26.42,0.0,0.0,1.07,0.01,0.06,0.0,0.0
10.856312400021125,0,0,0,0,1,64,8702171,3.1951844692230225,1.4342718124389648,0.6987282633781433,-0.06624909490346909,-0.9218478798866272,0.006569594610482454,0.004683174192905426,26.42,0.19,0.0,1.1400000000000001,0.08,0.1,0.0,0.0
10.880701200017938,0,0,0,0,1,64,8702195,3.200734853744507,1.4209774732589722,0.6895243525505066,-0.16785699129104614,-0.8161786198616028,0.004372366704046726,0.004198023583739996,26.400000000000002,0.09,0.02,1.27,0.0,0.1,0.0,0.0
10.917694100004155,0,0,0,0,1,64,8702232,3.2072460651397705,1.3910647630691528,0.6890131831169128,-0.3665880560874939,-0.5598230957984924,0.005517942830920219,0.015670770779252052,26.42,0.0,0.15,0.96,0.0,0.06,0.0,0.0
10.948993199999677,0,0,0,0,1,64,8702264,3.2209019660949707,1.3593626022338867,0.696171760559082,-0.5407789945602417,-0.3471246063709259,0.008398936130106449,0.010291061364114285,26.42,0.0,0.41000000000000003,1.2,0.0,0.0,0.0,0.0
10.9737931000127,0,0,0,0,1,64,8702288,3.237769603729248,1.3286828994750977,0.7217381596565247,-0.6907695531845093,-0.06360319256782532,0.009291451424360275,0.0010155205382034183,26.42,0.03,0.16,1.05,0.0,0.0,0.08,0.0
11.010935700003756,0,0,0,0,1,64,8702326,3.258964776992798,1.270391583442688,0.8124987483024597,-0.9624348878860474,0.7001453638076782,0.0028072395361959934,-0.002324555302038789,26.42,0.08,0.07,1.1,0.05,0.0,0.09,0.0
11.041645900026197,0,0,0,0,1,64,8702356,3.2638540267944336,1.225650429725647,0.915019690990448,-1.1162104606628418,1.4202193021774292,-0.003929339349269867,-0.006763829383999109,26.42,0.17,0.04,1.17,0.07,0.0,0.07,0.0
11.072634100011783,0,0,0,0,1,64,8702387,3.2563281059265137,1.1936925649642944,1.0318578481674194,-1.1078544855117798,2.07946515083313,0.0010479334741830826,-0.0035264515317976475,26.400000000000002,0.12,0.13,1.08,0.0,0.03,0.14,0.27
11.103921300004004,0,0,0,0,1,64,8702419,3.2429888248443604,1.172728180885315,1.1435827016830444,-0.9812586307525635,2.5013346672058105,0.001439410261809826,-0.004155294504016638,26.42,0.11,0.14,1.01,0.0,0.12,0.32,0.32
11.129186800011666,0,0,0,0,1,64,8702444,3.2333977222442627,1.1548317670822144,1.2282072305679321,-0.9061346650123596,2.698056697845459,-0.003976102452725172,-0.00681603467091918,26.42,0.06,0.09,0.99,0.0,0.24,0.43,0.25
11.165156400005799,0,0,0,0,1,64,8702480,3.223520278930664,1.1159709692001343,1.3427444696426392,-0.9448398351669312,2.855846881866455,0.004214073996990919,-0.0007634526118636131,26.42,0.0,0.1,0.91,0.0,0.36,0.41000000000000003,0.13
11.185769800009439,0,0,0,0,1,64,8702500,3.220031261444092,1.0893818140029907,1.3961782455444336,-1.0117276906967163,2.827345609664917,0.000853870005812496,-0.003567091654986143,26.42,0.0,0.07,0.88,0.0,0.34,0.38,0.02
11.211957100022119,0,0,0,0,1,64,8702527,3.218014717102051,1.0505210161209106,1.4572817087173462,-1.1147403717041016,2.6982574462890625,0.005463952198624611,0.0005798951606266201,26.400000000000002,0.12,0.09,0.87,0.0,0.27,0.34,0.01
11.242493900004774,0,0,0,0,1,64,8702557,3.217574119567871,1.0050129890441895,1.5091814994812012,-1.2235091924667358,2.4436991214752197,0.0027762465178966522,-9.64112114161253e-05,26.42,0.03,0.03,0.9,0.0,0.18,0.33,0.0
11.272805700020399,0,0,0,0,1,64,8702587,3.2181875705718994,0.9584822654724121,1.5439516305923462,-1.3103728294372559,2.108319044113159,0.00531300762668252,1.8882154108723626e-05,26.44,0.08,0.05,0.85,0.0,0.17,0.3,0.0
11.304563200013945,0,0,0,0,1,64,8702619,3.218137264251709,0.9114401936531067,1.561336874961853,-1.3592426776885986,1.6742370128631592,0.008695866912603378,-0.0011373815359547734,26.44,0.0,0.01,0.91,0.0,0.09,0.25,0.02
11.328894900012529,0,0,0,0,1,64,8702644,3.2173800468444824,0.8797378540039062,1.5608254671096802,-1.344508171081543,1.29012131690979,0.004935974720865488,0.0068756998516619205,26.42,0.0,0.0,0.97,0.0,0.02,0.2,0.15
11.366464200022165,0,0,0,0,1,64,8702681,3.2084014415740967,0.84471195936203,1.5521329641342163,-1.2252165079116821,0.79933100938797,-2.2976888431003317e-05,0.0047156428918242455,26.400000000000002,0.09,0.0,0.93,0.0,0.0,0.16,0.48
11.39693710001302,0,0,0,0,1,64,8702712,3.1945955753326416,0.8255372047424316,1.5329581499099731,-1.056990623474121,0.4164184033870697,0.0040568821132183075,0.0008580989670008421,26.42,0.09,0.0,0.93,0.0,0.0,0.11,0.59
11.4288588000054,0,0,0,0,1,64,8702743,3.1789820194244385,0.8078964352607727,1.5050908327102661,-0.9134992957115173,0.054462239146232605,0.007400188595056534,0.005656128283590078,26.42,0.2,0.06,0.88,0.0,0.0,0.04,0.46
11.46038070000941,0,0,0,0,1,64,8702775,3.169417142868042,0.7790064811706543,1.4805470705032349,-0.8958501815795898,-0.18907426297664642,0.0022620712406933308,0.002304790774360299,26.42,0.06,0.11,0.79,0.02,0.0,0.01,0.13
11.484846900013508,0,0,0,0,1,64,8702799,3.1696767807006836,0.747048556804657,1.4710875749588013,-0.9777290225028992,-0.2491784691810608,0.005427964963018894,-0.013193130493164062,26.44,0.0,0.07,0.88,0.0,0.0,0.07,0.0
11.522060600022087,0,0,0,0,1,64,8702837,3.1819331645965576,0.6895243525505066,1.4700649976730347,-1.1560198068618774,-0.17482256889343262,0.0046299900859594345,-0.003232177346944809,26.42,0.08,0.0,1.11,0.0,0.0,0.27,0.0
11.553349800000433,0,0,0,0,1,64,8702868,3.195897340774536,0.6501522064208984,1.468786597251892,-1.2014710903167725,-0.13158729672431946,0.002776884939521551,-0.002258168999105692,26.42,0.06,0.0,1.3900000000000001,0.0,0.13,0.42,0.0
11.584986300003948,0,0,0,0,1,64,8702900,3.201080560684204,0.6261197924613953,1.466485619544983,-1.0912752151489258,-0.10539980232715607,-0.00019750592764467,0.012219058349728584,26.44,0.0,0.01,1.2,0.0,0.28,0.36,0.0
11.609931400016649,0,0,0,0,1,64,8702925,3.2037322521209717,0.6220291256904602,1.4567705392837524,-0.8925039172172546,-0.16075101494789124,0.007347618695348501,0.004529229365289211,26.44,0.16,0.06,1.07,0.01,0.15,0.22,0.0
11.647442800021963,0,0,0,0,1,64,8702962,3.219667911529541,0.6253528594970703,1.4358059167861938,-0.5740182995796204,-0.28733065724372864,0.011608791537582874,0.004828034434467554,26.44,0.01,0.13,0.88,0.17,0.17,0.0,0.0
11.678761000017403,0,0,0,0,1,64,8702993,3.242133617401123,0.6475954055786133,1.4097284078598022,-0.24397319555282593,-0.42743855714797974,0.005419666413217783,0.005025472491979599,26.42,0.0,0.11,0.8300000000000001,0.03,0.28,0.0,0.0
11.709294500004034,0,0,0,0,1,64,8703024,3.2608938217163086,0.7092103958129883,1.3616634607315063,0.3357406258583069,-0.7162572741508484,0.003717572195455432,0.008532967418432236,26.44,0.22,0.23,0.96,0.0,0.17,0.0,0.0
11.740904700011015,0,0,0,0,1,64,8703056,3.271415948867798,0.8020160794258118,1.303116798400879,1.056936502456665,-1.0412107706069946,-0.00383635307662189,0.005090345628559589,26.400000000000002,0.09,0.3,1.18,0.0,0.12,0.0,0.0
11.76592070001061,0,0,0,0,1,64,8703081,3.274974822998047,0.8797378540039062,1.269369125366211,1.5380306243896484,-1.1382136344909668,-0.004549969453364611,0.0018297675997018814,26.42,0.0,0.07,1.25,0.0,0.1,0.0,0.0
11.802564000012353,0,0,0,0,1,64,8703117,3.2737746238708496,0.9942750930786133,1.2491718530654907,2.0531983375549316,-0.97306227684021,-0.0048027364537119865,0.004792727995663881,26.400000000000002,0.11,0.08,1.1,0.0,0.0,0.0,0.13
11.822976700001163,0,0,0,0,1,64,8703138,3.269629716873169,1.0650938749313354,1.2432914972305298,2.306328296661377,-0.8336809873580933,0.0006185374222695827,-0.0022482899948954582,26.400000000000002,0.0,0.02,1.1500000000000001,0.0,0.0,0.0,0.24
11.848923900019145,0,0,0,0,1,64,8703164,3.2602639198303223,1.1543203592300415,1.2305084466934204,2.5674619674682617,-0.730162501335144,-0.003992120269685984,0.00788832362741232,26.42,0.06,0.01,1.1,0.0,0.0,0.0,0.36
11.880915300018387,0,0,0,0,1,64,8703196,3.246800184249878,1.2581197023391724,1.1995731592178345,2.765378952026367,-0.7770035266876221,-0.004623563028872013,0.00462072528898716,26.42,0.2,0.07,0.96,0.0,0.0,0.0,0.3
11.905957700015279,0,0,0,0,1,64,8703221,3.2390267848968506,1.326637625694275,1.1650584936141968,2.776639938354492,-0.9052149057388306,0.0017753017600625753,0.004199884831905365,26.42,0.04,0.09,0.87,0.0,0.0,0.0,0.15
11.943269300012616,0,0,0,0,1,64,8703258,3.2347521781921387,1.4023140668869019,1.1044660806655884,2.556089401245117,-1.1389089822769165,0.006145942024886608,0.00422028498724103,26.400000000000002,0.08,0.1,0.79,0.02,0.0,0.0,0.0
11.974623500020243,0,0,0,0,1,64,8703289,3.2362735271453857,1.440663456916809,1.0489873886108398,2.203361749649048,-1.320000410079956,-0.005282879341393709,-0.00030183157650753856,26.400000000000002,0.0,0.08,0.85,0.0,0.0,0.0,0.0
12.005476500024088,0,0,0,0,1,64,8703320,3.2400972843170166,1.460349678993225,0.9935083389282227,1.7734239101409912,-1.4522645473480225,-0.0031263018026947975,0.0014050962636247277,26.44,0.11,0.02,0.92,0.0,0.0,0.0,0.0
12.03626950000762,0,0,0,0,1,64,8703351,3.2425320148468018,1.4667412042617798,0.9441652297973633,1.340787410736084,-1.4966601133346558,-0.005718796513974667,0.002131447661668062,26.42,0.01,0.0,0.9,0.0,0.0,0.0,0.03
12.067154300020775,0,0,0,0,1,64,8703382,3.2404868602752686,1.4664855003356934,0.9040260314941406,0.96002596616745,-1.4491413831710815,-0.0029008209239691496,0.01026864442974329,26.42,0.09,0.0,0.92,0.04,0.1,0.0,0.28
12.097082700027386,0,0,0,0,1,64,8703412,3.2312421798706055,1.4664855003356934,0.8746249079704285,0.6957201361656189,-1.3276216983795166,-0.010669858194887638,0.00305966311134398,26.42,0.0,0.0,0.9500000000000001,0.03,0.21,0.02,0.52
12.129051000025356,0,0,0,0,1,64,8703444,3.213996410369873,1.4634175300598145,0.8475246429443359,0.47631627321243286,-1.1855443716049194,-0.0013896035961806774,-0.0013954213354736567,26.42,0.04,0.0,0.9400000000000001,0.0,0.27,0.04,0.62
12.15420570000424,0,0,0,0,1,64,8703469,3.2003870010375977,1.4552364349365234,0.8237479329109192,0.3002229630947113,-1.1201016902923584,-0.002446285914629698,0.004067143425345421,26.42,0.12,0.0,0.88,0.0,0.25,0.05,0.49
12.190704300010111,0,0,0,0,1,64,8703505,3.188018321990967,1.441174864768982,0.7807963490486145,0.08093497902154922,-1.1334224939346313,0.00039366743294522166,0.0015139890601858497,26.42,0.01,0.08,0.8300000000000001,0.0,0.2,0.0,0.16
12.211135700024897,0,0,0,0,1,64,8703526,3.186373710632324,1.4342718124389648,0.7513949275016785,-0.0031779820565134287,-1.1825926303863525,-0.0012237203773111105,0.001847335253842175,26.400000000000002,0.06,0.03,0.9500000000000001,0.0,0.16,0.0,0.0
12.236934600019595,0,0,0,0,1,64,8703552,3.1901018619537354,1.4281359910964966,0.7145795822143555,-0.062453608959913254,-1.2398730516433716,-0.003781132632866502,0.008070399984717369,26.42,0.01,0.0,1.03,0.0,0.07,0.0,0.0
12.267516800027806,0,0,0,0,1,64,8703582,3.199038505554199,1.4207216501235962,0.6831328272819519,-0.1090569794178009,-1.2080349922180176,-0.005853446200489998,0.004207786172628403,26.44,0.0,0.0,1.17,0.03,0.07,0.0,0.0
12.297329900000477,0,0,0,0,1,64,8703612,3.2046120166778564,1.410239577293396,0.6672818064689636,-0.16553868353366852,-1.039264440536499,-0.00012834701919928193,-0.0005441869143396616,26.42,0.0,0.0,1.3,0.0,0.05,0.0,0.02
12.328779800009215,0,0,0,0,1,64,8703643,3.204791307449341,1.3938770294189453,0.6662591099739075,-0.26068925857543945,-0.7660675644874573,-0.003304656594991684,0.004931581672281027,26.42,0.19,0.05,1.0,0.01,0.12,0.0,0.0
12.359930400009034,0,0,0,0,1,64,8703675,3.2120285034179688,1.375213623046875,0.6688156127929688,-0.35397544503211975,-0.5201287269592285,0.00019115442410111427,-0.024341274052858353,26.42,0.01,0.11,1.04,0.0,0.17,0.0,0.0
12.385141700011445,0,0,0,0,1,64,8703700,3.2223587036132812,1.357061505317688,0.6813433766365051,-0.4296829104423523,-0.305882066488266,0.0023653830867260695,-0.010883975774049759,26.42,0.0,0.22,1.1400000000000001,0.0,0.0,0.16,0.0
12.421693700016476,0,0,0,0,1,64,8703736,3.240199089050293,1.312576174736023,0.7439807057380676,-0.6674343943595886,0.29171624779701233,-0.006539702415466309,-0.010336029343307018,26.400000000000002,0.0,0.15,0.89,0.0,0.0,0.25,0.0
12.4422422000207,0,0,0,0,1,64,8703757,3.249077081680298,1.278572916984558,0.805084228515625,-0.8478777408599854,0.7859196066856384,-0.0046014366671442986,-0.00586003577336669,26.42,0.12,0.07,1.06,0.07,0.0,0.17,0.0
12.46943789999932,0,0,0,0,1,64,8703784,3.2541096210479736,1.2386894226074219,0.8978900909423828,-1.0155282020568848,1.4325451850891113,-0.005195479840040207,-0.0032432740554213524,26.44,0.0,0.11,1.1400000000000001,0.01,0.0,0.09,0.0
12.49984630002291,0,0,0,0,1,64,8703814,3.2508232593536377,1.2085210084915161,1.009103775024414,-1.0326308012008667,2.0508177280426025,0.006322292145341635,0.0008750832639634609,26.42,0.0,0.1,1.07,0.0,0.0,0.13,0.14
12.531661500019254,0,0,0,0,1,64,8703846,3.2423088550567627,1.1880680322647095,1.1200615167617798,-0.9206578135490417,2.4712727069854736,0.0011391222942620516,-0.0022560509387403727,26.44,0.06,0.15,1.03,0.0,0.07,0.28,0.19
12.556226700020488,0,0,0,0,1,64,8703871,3.2350611686706543,1.1711941957473755,1.2008514404296875,-0.8515015840530396,2.645115852355957,0.003879894968122244,-0.002962677273899317,26.400000000000002,0.0,0.16,0.97,0.0,0.17,0.39,0.13
12.594376300025033,0,0,0,0,1,64,8703909,3.227670907974243,1.1310549974441528,1.3169225454330444,-0.9045657515525818,2.7774431705474854,0.0005713680293411016,-0.005501148756593466,26.42,0.06,0.12,0.9,0.03,0.32,0.37,0.01
12.626123500027461,0,0,0,0,1,64,8703941,3.2258875370025635,1.0855469703674316,1.3961782455444336,-1.0425220727920532,2.7030746936798096,-0.004026063717901707,0.003206083085387945,26.42,0.0,0.11,0.85,0.0,0.37,0.35000000000000003,0.0
12.651278400007868,0,0,0,0,1,64,8703966,3.2268714904785156,1.0477088689804077,1.4470552206039429,-1.1512352228164673,2.55535888671875,-0.0003100391768384725,0.0027602380141615868,26.42,0.01,0.03,0.96,0.0,0.32,0.36,0.0
12.687618900003145,0,0,0,0,1,64,8704002,3.226189613342285,0.992996871471405,1.5010002851486206,-1.2682709693908691,2.231771469116211,0.0026352806016802788,0.004477049224078655,26.400000000000002,0.08,0.04,0.9500000000000001,0.0,0.14,0.32,0.0
12.708319900004426,0,0,0,0,1,64,8704023,3.224973440170288,0.962317168712616,1.5219646692276,-1.3065005540847778,1.9951450824737549,0.0018465056782588363,0.0032761255279183388,26.400000000000002,0.01,0.0,0.9500000000000001,0.0,0.09,0.3,0.04
12.734286000020802,0,0,0,0,1,64,8704049,3.2229044437408447,0.9267799258232117,1.536281943321228,-1.3209799528121948,1.6636770963668823,-0.0021451457869261503,0.00567080220207572,26.42,0.0,0.0,0.96,0.0,0.05,0.22,0.11
12.76567440002691,0,0,0,0,1,64,8704080,3.218506336212158,0.8899644017219543,1.5385828018188477,-1.2888381481170654,1.2271479368209839,6.267670687520877e-05,0.011917361058294773,26.42,0.0,0.0,0.98,0.0,0.0,0.13,0.23
12.79636420001043,0,0,0,0,1,64,8704111,3.2098653316497803,0.8603073954582214,1.5339808464050293,-1.201964259147644,0.8450344204902649,-0.0035091987811028957,0.01983276754617691,26.42,0.01,0.0,0.96,0.0,0.0,0.06,0.51
12.826324400026351,0,0,0,0,1,64,8704141,3.1949403285980225,0.8370420336723328,1.5224758386611938,-1.086008906364441,0.5179557800292969,0.0011019621742889285,-0.005038544535636902,26.42,0.12,0.0,0.89,0.0,0.0,0.08,0.65
12.857519300014246,0,0,0,0,1,64,8704172,3.177206039428711,0.8122426867485046,1.5022786855697632,-0.9978575110435486,0.2002018541097641,0.003682598704472184,0.005188132170587778,26.42,0.06,0.04,0.8,0.0,0.0,0.08,0.55
12.889071000012336,0,0,0,0,1,64,8704204,3.163898468017578,0.7790064811706543,1.4828481674194336,-0.9962215423583984,-0.04178684204816818,-0.0027047053445130587,-0.0013555982150137424,26.400000000000002,0.0,0.05,0.77,0.0,0.0,0.06,0.23
12.9143264000013,0,0,0,0,1,64,8704229,3.1612231731414795,0.7457701563835144,1.47492253780365,-1.0665004253387451,-0.11393114179372787,-0.005011833738535643,0.010828112252056599,26.42,0.0,0.08,0.86,0.0,0.0,0.09,0.0
12.949989700020524,0,0,0,0,1,64,8704265,3.169860363006592,0.6882460713386536,1.474666953086853,-1.2288912534713745,-0.08436688035726547,-0.0031889674719423056,0.006632789969444275,26.42,0.11,0.0,1.07,0.0,0.0,0.2,0.0
12.971360900002765,0,0,0,0,1,64,8704286,3.1788554191589355,0.656032383441925,1.4731329679489136,-1.2960399389266968,-0.07353240996599197,0.005337208043783903,0.0017195374239236116,26.42,0.03,0.0,1.17,0.0,0.04,0.23,0.0
13.0120181000093,0,0,0,0,1,64,8704327,3.1909868717193604,0.6097574234008789,1.4728771448135376,-1.2514938116073608,-0.049086958169937134,0.002729104831814766,-0.004305223003029823,26.42,0.0,0.0,1.29,0.0,0.25,0.17,0.0
13.043105400021886,0,0,0,0,1,64,8704358,3.1963350772857666,0.600297749042511,1.4644403457641602,-1.0126956701278687,-0.09560488164424896,-0.0023846421390771866,0.000499931164085865,26.42,0.09,0.06,1.1,0.0,0.05,0.07,0.0
13.07546980000916,0,0,0,0,1,64,8704390,3.2072010040283203,0.6069450378417969,1.4470552206039429,-0.6658919453620911,-0.21842479705810547,-0.00997404009103775,0.006457372102886438,26.42,0.11,0.17,1.03,0.1,0.14,0.0,0.0
13.10043580000638,0,0,0,0,1,64,8704415,3.2229275703430176,0.6268866658210754,1.4258352518081665,-0.35232070088386536,-0.3507295548915863,-0.0037916796281933784,0.00010046643728855997,26.42,0.09,0.09,0.96,0.02,0.18,0.0,0.0
13.137866200006101,0,0,0,0,1,64,8704452,3.2419281005859375,0.703841507434845,1.3706117868423462,0.3937661349773407,-0.697644054889679,-0.00582397636026144,0.0029778287280350924,26.400000000000002,0.09,0.19,0.89,0.0,0.09,0.0,0.0
13.162485700013349,0,0,0,0,1,64,8704477,3.2488815784454346,0.7797734141349792,1.325103759765625,0.9906379580497742,-0.9593614339828491,-0.007997572422027588,0.0019299353007227182,26.44,0.03,0.18,1.04,0.0,0.18,0.0,0.0
13.199928500020178,0,0,0,0,1,64,8704515,3.2513632774353027,0.8996796607971191,1.271925926208496,1.715700626373291,-1.127683162689209,0.003604006487876177,-0.0008122262661345303,26.400000000000002,0.0,0.1,1.08,0.0,0.15,0.0,0.0
13.231117600022117,0,0,0,0,1,64,8704546,3.2494406700134277,0.9942750930786133,1.2478933334350586,2.087127685546875,-1.0389175415039062,-0.0012635457096621394,0.003960727248340845,26.42,0.04,0.11,1.07,0.0,0.01,0.0,0.04
13.261540500010597,0,0,0,0,1,64,8704576,3.244274139404297,1.0881036520004272,1.2274402379989624,2.3585023880004883,-0.9330294728279114,0.0023592181969434023,0.001744208624586463,26.42,0.01,0.14,1.1,0.0,0.0,0.0,0.18
13.293565500003751,0,0,0,0,1,64,8704608,3.2361996173858643,1.1893463134765625,1.192670226097107,2.5854499340057373,-0.9569305181503296,0.006005123723298311,0.0005887378938496113,26.400000000000002,0.0,0.14,0.97,0.0,0.0,0.0,0.19
13.324882100016112,0,0,0,0,1,64,8704640,3.2306857109069824,1.2818965911865234,1.1469062566757202,2.6791388988494873,-1.08505380153656,-0.0031882748007774353,-0.0011218769941478968,26.400000000000002,0.11,0.1,0.8200000000000001,0.0,0.0,0.0,0.06
13.355260500014992,0,0,0,0,1,64,8704670,3.2299866676330566,1.3506699800491333,1.1006313562393188,2.587707042694092,-1.2070043087005615,-0.0011848252033814788,0.0012713286560028791,26.42,0.0,0.04,0.89,0.0,0.0,0.0,0.0
13.386476400017273,0,0,0,0,1,64,8704701,3.231656074523926,1.4046149253845215,1.0494985580444336,2.359114408493042,-1.3262619972229004,-0.0022889701649546623,0.004982805345207453,26.42,0.06,0.05,0.85,0.03,0.0,0.0,0.0
13.417601699999068,0,0,0,0,1,64,8704732,3.234313726425171,1.4450098276138306,0.9947865605354309,2.069701671600342,-1.4426791667938232,-0.003095109947025776,0.00023187650367617607,26.42,0.0,0.0,0.9,0.0,0.0,0.0,0.0
13.448827300017001,0,0,0,0,1,64,8704763,3.236027479171753,1.4721101522445679,0.942887008190155,1.7446907758712769,-1.5140728950500488,-0.00011782068759202957,-0.004825202282518148,26.44,0.17,0.01,0.92,0.0,0.0,0.0,0.0
13.48031880002236,0,0,0,0,1,64,8704795,3.235778331756592,1.4861717224121094,0.8999354243278503,1.3804798126220703,-1.4776033163070679,0.003232531249523163,0.0004882935900241137,26.42,0.08,0.0,0.9400000000000001,0.0,0.0,0.0,0.11
13.504567800002405,0,0,0,0,1,64,8704819,3.233604907989502,1.4871944189071655,0.875391960144043,1.08894681930542,-1.3819299936294556,0.012079698964953423,-0.0005714631406590343,26.42,0.0,0.0,1.0,0.07,0.06,0.0,0.21
13.54206430001068,0,0,0,0,1,64,8704857,3.2227606773376465,1.4871944189071655,0.8452234268188477,0.723524272441864,-1.1866886615753174,0.015467071905732155,0.006326126866042614,26.42,0.12,0.0,0.96,0.04,0.14,0.0,0.5
13.5734907000151,0,0,0,0,1,64,8704888,3.2086141109466553,1.4848933219909668,0.8217026591300964,0.5044620633125305,-1.0605287551879883,0.0149428965523839,0.004855756182223558,26.400000000000002,0.0,0.0,0.92,0.03,0.17,0.0,0.52
13.604677100025583,0,0,0,0,1,64,8704919,3.196127414703369,1.4754337072372437,0.7981815338134766,0.2872677743434906,-0.9735425710678101,0.008233892731368542,0.004262708593159914,26.42,0.01,0.0,0.92,0.03,0.16,0.0,0.35000000000000003
13.635390900017228,0,0,0,0,1,64,8704950,3.190418243408203,1.4611164331436157,0.7718480229377747,0.07863794267177582,-0.9339757561683655,0.0073373946361243725,8.582103328080848e-05,26.42,0.08,0.0,0.91,0.0,0.16,0.0,0.12
13.666618200019002,0,0,0,0,1,64,8704981,3.191973924636841,1.4475663900375366,0.740401566028595,-0.06642750650644302,-0.9490943551063538,0.004220697563141584,-0.0034183531533926725,26.42,0.0,0.0,1.0,0.0,0.08,0.0,0.0
13.69722110001021,0,0,0,0,1,64,8705012,3.198330879211426,1.4360615015029907,0.70793217420578,-0.1513202041387558,-0.9837024807929993,0.0012892086524516344,0.004152619745582342,26.42,0.0,0.0,1.03,0.0,0.06,0.0,0.0
13.728888900019228,0,0,0,0,1,64,8705044,3.2048072814941406,1.4184207916259766,0.6864563822746277,-0.2536720633506775,-0.9103103280067444,-0.002886927453801036,0.0062096007168293,26.42,0.12,0.02,1.17,0.0,0.06,0.0,0.0
13.75357040000381,0,0,0,0,1,64,8705068,3.2094759941101074,1.4000129699707031,0.6833887100219727,-0.3629321753978729,-0.7517067193984985,-0.0017654281109571457,-0.0021711927838623524,26.400000000000002,0.0,0.06,1.05,0.0,0.0,0.0,0.0
13.790901200001827,0,0,0,0,1,64,8705106,3.2278411388397217,1.3736796379089355,0.6882460713386536,-0.47760313749313354,-0.4627613425254822,0.00419595604762435,-0.015221314504742622,26.400000000000002,0.06,0.16,1.0,0.0,0.0,0.0,0.0
13.822307599999476,0,0,0,0,1,64,8705137,3.2477195262908936,1.3496474027633667,0.7127898335456848,-0.5432475805282593,-0.14579983055591583,-0.0005299531621858478,-0.00985769648104906,26.42,0.09,0.15,1.09,0.0,0.0,0.13,0.0
13.852809400006663,0,0,0,0,1,64,8705167,3.264723300933838,1.3097639083862305,0.777216911315918,-0.7361277937889099,0.4265345633029938,-0.00278456206433475,0.00036329487920738757,26.42,0.0,0.17,1.03,0.05,0.0,0.17,0.0
13.88471500002197,0,0,0,0,1,64,8705199,3.2746856212615967,1.2591423988342285,0.8810164332389832,-0.9824352264404297,1.2118656635284424,-0.0035483823157846928,-0.0011499766260385513,26.42,0.0,0.1,1.27,0.1,0.0,0.07,0.0
13.908634200022789,0,0,0,0,1,64,8705223,3.2752461433410645,1.2320421934127808,0.9689645767211914,-1.0383325815200806,1.7604079246520996,-0.0012401947751641273,-0.003342490177601576,26.42,0.0,0.11,1.1500000000000001,0.0,0.0,0.03,0.02
13.94625140001881,0,0,0,0,1,64,8705261,3.2662367820739746,1.2133785486221313,1.1052331924438477,-0.8693005442619324,2.3768224716186523,0.00297589972615242,-0.004767911043018103,26.42,0.11,0.11,1.08,0.0,0.22,0.23,0.2
13.977376900002128,0,0,0,0,1,64,8705292,3.2562358379364014,1.2003397941589355,1.2110776901245117,-0.7288047075271606,2.659799098968506,0.0047059194184839725,0.00456999009475112,26.44,0.0,0.06,1.1,0.0,0.32,0.4,0.25
14.008632000011858,0,0,0,0,1,64,8705323,3.2456700801849365,1.1734951734542847,1.3158998489379883,-0.7475695610046387,2.8579113483428955,0.005851734895259142,-0.004496155306696892,26.42,0.01,0.13,1.0,0.0,0.33,0.33,0.23
14.03997100002016,0,0,0,0,1,64,8705355,3.237485647201538,1.1310549974441528,1.4064048528671265,-0.9017338752746582,2.8665542602539062,-0.0011177220148965716,-0.0038711214438080788,26.400000000000002,0.03,0.04,0.92,0.0,0.3,0.28,0.1
14.064725300006103,0,0,0,0,1,64,8705379,3.2335829734802246,1.0924497842788696,1.4616279602050781,-1.052075743675232,2.751487970352173,0.0028015952557325363,-0.0007695748354308307,26.42,0.0,0.08,0.85,0.0,0.24,0.29,0.07
14.102185100025963,0,0,0,0,1,64,8705417,3.230674982070923,1.028533935546875,1.5206862688064575,-1.2630003690719604,2.3721115589141846,-0.0036430705804377794,0.0018857074901461601,26.42,0.04,0.03,0.88,0.0,0.18,0.29,0.0
14.133393900003284,0,0,0,0,1,64,8705448,3.2304208278656006,0.9748446345329285,1.5439516305923462,-1.3919038772583008,1.9323757886886597,-0.0030514139216393232,-0.004565146751701832,26.42,0.08,0.03,0.86,0.0,0.15,0.27,0.0
14.164710100012599,0,0,0,0,1,64,8705479,3.231501579284668,0.9239676594734192,1.5493206977844238,-1.4624515771865845,1.4492896795272827,-0.0023172670044004917,-0.01015959307551384,26.42,0.0,0.0,0.92,0.0,0.09,0.24,0.0
14.196329300000798,0,0,0,0,1,64,8705511,3.229818344116211,0.8787152171134949,1.547019600868225,-1.4548156261444092,1.0100380182266235,-0.002298022387549281,-0.0007239093538373709,26.42,0.12,0.0,0.9500000000000001,0.0,0.0,0.16,0.22
14.220758100011153,0,0,0,0,1,64,8705535,3.223879814147949,0.8534045219421387,1.543184757232666,-1.3768608570098877,0.7531912326812744,0.0018977457657456398,0.01642475835978985,26.42,0.03,0.0,0.96,0.0,0.0,0.15,0.38
14.258634000027087,0,0,0,0,1,64,8705573,3.2091195583343506,0.8232361674308777,1.529378890991211,-1.1833899021148682,0.39072200655937195,0.004274378996342421,0.0005783450324088335,26.42,0.0,0.0,0.96,0.0,0.0,0.14,0.5
14.289677700027823,0,0,0,0,1,64,8705604,3.196178436279297,0.7971585392951965,1.513527750968933,-1.0769457817077637,0.14316774904727936,-0.001647263066843152,-0.004107811022549868,26.44,0.09,0.0,0.89,0.0,0.0,0.15,0.38
14.320235000021057,0,0,0,0,1,64,8705635,3.188570261001587,0.7628996968269348,1.4999775886535645,-1.0708485841751099,-0.0253407321870327,-0.0016864389181137085,0.009077752009034157,26.44,0.03,0.04,0.89,0.0,0.0,0.17,0.15
14.352224700007355,0,0,0,0,1,64,8705667,3.1881721019744873,0.7189254760742188,1.491284966468811,-1.1517159938812256,-0.09607274830341339,0.002850688062608242,0.008604047819972038,26.44,0.0,0.0,0.98,0.0,0.0,0.25,0.0
14.376886000012746,0,0,0,0,1,64,8705691,3.193066358566284,0.6844110488891602,1.4871944189071655,-1.2185561656951904,-0.11080700159072876,0.0010917256586253643,-0.01779230497777462,26.42,0.01,0.0,1.02,0.0,0.0,0.33,0.0
14.413601700012805,0,0,0,0,1,64,8705728,3.203279972076416,0.6429936289787292,1.4767122268676758,-1.1999346017837524,-0.15542013943195343,-0.0010658903047442436,-0.002848090371116996,26.44,0.14,0.0,1.19,0.0,0.04,0.45,0.0
14.444465800013859,0,0,0,0,1,64,8705759,3.2095212936401367,0.6245858073234558,1.4590715169906616,-1.0468573570251465,-0.2612907290458679,-0.001234629307873547,0.0012975364224985242,26.42,0.0,0.0,1.12,0.01,0.17,0.47000000000000003,0.0
14.476427100016735,0,0,0,0,1,64,8705791,3.219107151031494,0.6220291256904602,1.4352947473526,-0.7773157954216003,-0.39637845754623413,-0.006635713391005993,0.001936011598445475,26.42,0.0,0.0,0.97,0.0,0.09,0.41000000000000003,0.0
14.500792700011516,0,0,0,0,1,64,8705815,3.2295103073120117,0.6245858073234558,1.4184211492538452,-0.5831093192100525,-0.4673435688018799,0.003558394033461809,-0.002536540385335684,26.44,0.08,0.19,0.93,0.14,0.17,0.2,0.0
14.537858800002141,0,0,0,0,1,64,8705852,3.252178192138672,0.6562881469726562,1.3793045282363892,-0.15489578247070312,-0.637054979801178,-0.003634176217019558,0.00393410911783576,26.400000000000002,0.0,0.19,0.9500000000000001,0.05,0.26,0.0,0.0
14.569088900025235,0,0,0,0,1,64,8705884,3.271087408065796,0.7311973571777344,1.3233140707015991,0.5209940075874329,-0.9349729418754578,-0.0009644762612879276,0.005402746610343456,26.42,0.03,0.13,1.21,0.0,0.19,0.0,0.0
14.593981900019571,0,0,0,0,1,64,8705909,3.2798502445220947,0.8122426867485046,1.2732042074203491,1.1359758377075195,-1.1841965913772583,-0.001894800690934062,0.0026042978279292583,26.42,0.0,0.12,1.1400000000000001,0.0,0.2,0.0,0.0
14.631683200015686,0,0,0,0,1,64,8705946,3.2844011783599854,0.9403302073478699,1.2179807424545288,1.8970160484313965,-1.3106309175491333,0.0016614773776382208,0.0025482801720499992,26.44,0.06,0.03,1.08,0.0,0.16,0.0,0.0
14.662384400027804,0,0,0,0,1,64,8705977,3.281712293624878,1.0461746454238892,1.1888351440429688,2.320383071899414,-1.2144824266433716,-0.00014375477621797472,0.0026683546602725983,26.44,0.01,0.0,1.12,0.0,0.02,0.0,0.07
14.69401750000543,0,0,0,0,1,64,8706009,3.274488925933838,1.1517637968063354,1.1619905233383179,2.6007115840911865,-1.0968215465545654,-0.007868180982768536,-0.007469668984413147,26.42,0.01,0.07,1.07,0.04,0.0,0.0,0.21
14.719133500009775,0,0,0,0,1,64,8706034,3.26714825630188,1.2302523851394653,1.1343787908554077,2.7284340858459473,-1.0842139720916748,-0.0008152865921147168,-0.0022317341063171625,26.42,0.0,0.08,1.02,0.0,0.0,0.0,0.21
14.7555753000197,0,0,0,0,1,64,8706070,3.260197401046753,1.3248480558395386,1.0847800970077515,2.708974599838257,-1.1655075550079346,-0.00030459469417110085,-0.005075756460428238,26.44,0.0,0.1,0.88,0.0,0.0,0.0,0.08
14.776064500008943,0,0,0,0,1,64,8706091,3.2582547664642334,1.3657541275024414,1.0528221130371094,2.569808006286621,-1.2336616516113281,-0.0002555856481194496,-0.0005510385381057858,26.42,0.01,0.08,0.89,0.0,0.0,0.0,0.0
14.802022900024895,0,0,0,0,1,64,8706117,3.258554697036743,1.4015470743179321,1.0101264715194702,2.2991762161254883,-1.3280836343765259,0.0021976951975375414,-0.00021842883143108338,26.400000000000002,0.11,0.05,0.88,0.0,0.0,0.0,0.0
14.833974900015164,0,0,0,0,1,64,8706149,3.261876106262207,1.4291586875915527,0.9556700587272644,1.8925220966339111,-1.433410406112671,0.007533891126513481,-0.005211214069277048,26.400000000000002,0.0,0.03,0.92,0.0,0.0,0.0,0.0
14.859051300009014,0,0,0,0,1,64,8706174,3.263909339904785,1.4416861534118652,0.9155308604240417,1.5744224786758423,-1.4787532091140747,0.005501914769411087,-0.0021880040876567364,26.42,0.14,0.0,0.92,0.0,0.0,0.0,0.0
14.895656700013205,0,0,0,0,1,64,8706210,3.263141632080078,1.4473108053207397,0.8702786564826965,1.1307145357131958,-1.4179112911224365,-0.00434174295514822,0.00440465472638607,26.42,0.11,0.02,0.93,0.04,0.0,0.0,0.15
14.916076300025452,0,0,0,0,1,64,8706231,3.2598423957824707,1.4470552206039429,0.8503367304801941,0.9015067219734192,-1.3317453861236572,-0.0052279517985880375,-0.002490619895979762,26.42,0.0,0.0,0.98,0.03,0.02,0.0,0.3
14.94166170002427,0,0,0,0,1,64,8706256,3.251929998397827,1.4470552206039429,0.8324403762817383,0.6895005106925964,-1.194077491760254,-0.007029583677649498,0.002059170976281166,26.42,0.12,0.0,0.92,0.01,0.08,0.0,0.5
14.973153400002047,0,0,0,0,1,64,8706288,3.2371184825897217,1.4460325241088867,0.8135213851928711,0.4852125346660614,-1.0172297954559326,-0.0051472675986588,-0.0012073095422238111,26.44,0.0,0.0,0.93,0.0,0.13,0.0,0.65
14.998035600001458,0,0,0,0,1,64,8706313,3.222460985183716,1.4457768201828003,0.7974144816398621,0.37032008171081543,-0.9253591299057007,-0.003352086991071701,0.002051102928817272,26.42,0.12,0.0,0.89,0.0,0.15,0.0,0.6900000000000001
