Time,PowerKeyState,FuncKeyState ,UpKeyState ,DownKeyState ,DeviceError ,Battery ,DeviceMs ,BackIncl ,HipAngle_L ,HipAngle_R ,HipSpeed_L ,HipSpeed_R ,HipTor_L ,HipTor_R ,Voltage ,Current ,AccX ,AccY ,AccZ ,GyroX ,GyroY ,GyroZ
0.0006222999945748597,0,0,0,0,1,64,8718984,3.2733044624328613,0.9017249941825867,1.2246280908584595,1.6426219940185547,-1.3826587200164795,0.001975046005100012,0.005389814265072346,26.400000000000002,0.0,0.06,1.11,0.0,0.03,0.0,0.0
0.03856610000366345,0,0,0,0,1,64,8719022,3.2743358612060547,1.01319420337677,1.1944595575332642,2.0601282119750977,-1.1914759874343872,0.0027391689363867044,-0.00020267223590053618,26.400000000000002,0.12,0.06,1.07,0.04,0.0,0.0,0.04
0.06891850000829436,0,0,0,0,1,64,8719052,3.2688350677490234,1.1075340509414673,1.1663366556167603,2.344196081161499,-1.1014835834503174,-0.002674869727343321,-0.0021353766787797213,26.42,0.0,0.1,1.03,0.0,0.0,0.0,0.16
0.09972289999132045,0,0,0,0,1,64,8719083,3.262124538421631,1.1995729207992554,1.1269645690917969,2.5274553298950195,-1.135495901107788,-0.0036706686951220036,0.004198612179607153,26.400000000000002,0.14,0.17,0.9,0.01,0.0,0.0,0.13
0.13036430001375265,0,0,0,0,1,64,8719114,3.2594456672668457,1.2716699838638306,1.0832462310791016,2.490929365158081,-1.2093335390090942,-0.0034455687273293734,0.0012527289800345898,26.400000000000002,0.0,0.1,0.8200000000000001,0.0,0.0,0.0,0.0
0.1613253999967128,0,0,0,0,1,64,8719145,3.261432409286499,1.3197346925735474,1.0364595651626587,2.2452445030212402,-1.29310941696167,-0.009359478019177914,0.0007011960260570049,26.400000000000002,0.01,0.04,0.8200000000000001,0.03,0.0,0.0,0.0
0.19239260000176728,0,0,0,0,1,64,8719176,3.266650676727295,1.347346305847168,0.9830262064933777,1.8781628608703613,-1.4034990072250366,-0.004774324595928192,-0.004976026713848114,26.44,0.0,0.0,0.96,0.02,0.0,0.0,0.0
0.2241228999919258,0,0,0,0,1,64,8719208,3.2709693908691406,1.3631974458694458,0.9216668009757996,1.4845693111419678,-1.5458675622940063,-0.0027081735897809267,0.008439358323812485,26.400000000000002,0.12,0.0,0.97,0.0,0.0,0.0,0.0
0.2487750000145752,0,0,0,0,1,64,8719232,3.2735488414764404,1.3690776824951172,0.8743693232536316,1.208141803741455,-1.639794945716858,-0.0025843349285423756,0.008720479905605316,26.42,0.11,0.0,0.96,0.0,0.0,0.03,0.0
0.28544249999686144,0,0,0,0,1,64,8719269,3.272104263305664,1.371378779411316,0.8096863627433777,0.8384085893630981,-1.6823796033859253,-0.0026325704529881477,0.0016433200798928738,26.400000000000002,0.06,0.0,1.02,0.0,0.01,0.1,0.17
0.31609259999822825,0,0,0,0,1,64,8719300,3.2634174823760986,1.371378779411316,0.7692915797233582,0.6021890044212341,-1.5888137817382812,-0.002713508438318968,-0.001349276164546609,26.44,0.0,0.0,0.99,0.03,0.03,0.11,0.47000000000000003
0.3472665000008419,0,0,0,0,1,64,8719331,3.248730421066284,1.37112295627594,0.7409127354621887,0.43221038579940796,-1.4074655771255493,-0.005417420528829098,0.0008953212527558208,26.42,0.0,0.0,0.98,0.03,0.05,0.09,0.61
0.37822220000089146,0,0,0,0,1,64,8719362,3.2306149005889893,1.370867371559143,0.7222493290901184,0.3075881898403168,-1.1859149932861328,-0.010737999342381954,0.0012592327548190951,26.44,0.0,0.0,0.8300000000000001,0.08,0.11,0.04,0.65
0.40925339999375865,0,0,0,0,1,64,8719393,3.214597225189209,1.3716343641281128,0.709466278553009,0.22986117005348206,-0.9688606262207031,-0.007154940627515316,-0.0011509002652019262,26.42,0.0,0.0,0.88,0.04,0.15,0.0,0.43
0.44108439999399707,0,0,0,0,1,64,8719425,3.205941915512085,1.371378779411316,0.6956602931022644,0.1659228354692459,-0.8099003434181213,-0.011976438574492931,0.007958662696182728,26.400000000000002,0.03,0.0,0.97,0.0,0.07,0.0,0.2
0.4659669999964535,0,0,0,0,1,64,8719449,3.2051901817321777,1.3716343641281128,0.6826216578483582,0.13002698123455048,-0.7467759251594543,-0.008620423264801502,0.0022864060010761023,26.42,0.0,0.0,1.05,0.0,0.01,0.0,0.05
0.5027919000131078,0,0,0,0,1,64,8719486,3.2112746238708496,1.371378779411316,0.6598675847053528,0.08787647634744644,-0.7032652497291565,-0.00917278416454792,0.003445262322202325,26.44,0.14,0.0,1.1,0.01,0.03,0.0,0.02
0.5347496999893337,0,0,0,0,1,64,8719518,3.214474678039551,1.3706116676330566,0.6437606811523438,0.055675212293863297,-0.6521528959274292,-0.01144059281796217,0.004230744671076536,26.42,0.14,0.0,1.28,0.0,0.01,0.0,0.13
0.5589806000061799,0,0,0,0,1,64,8719542,3.211733102798462,1.3688220977783203,0.6389029622077942,0.030703814700245857,-0.5648046135902405,-0.008523112162947655,0.004193772561848164,26.400000000000002,0.0,0.0,1.17,0.0,0.0,0.0,0.18
0.5962185999960639,0,0,0,0,1,64,8719580,3.2119131088256836,1.3524595499038696,0.64324951171875,-0.10491707921028137,-0.34822753071784973,-0.0019422165350988507,0.0051741935312747955,26.42,0.01,0.19,0.91,0.0,0.04,0.0,0.0
0.6274249000125565,0,0,0,0,1,64,8719611,3.2245123386383057,1.3284273147583008,0.6606343388557434,-0.2853062152862549,-0.11227557063102722,-0.003669907571747899,0.004233271349221468,26.42,0.08,0.25,1.04,0.0,0.0,0.1,0.0
0.6585139000089839,0,0,0,0,1,64,8719642,3.244678258895874,1.2939127683639526,0.709466278553009,-0.507512092590332,0.31815630197525024,-0.00474217813462019,0.0026415076572448015,26.400000000000002,0.0,0.13,0.89,0.0,0.0,0.12,0.0
0.6889671999961138,0,0,0,0,1,64,8719672,3.258314609527588,1.2524951696395874,0.7930682301521301,-0.7384920120239258,0.9541824460029602,-0.0021385066211223602,0.006436924450099468,26.44,0.0,0.03,1.1400000000000001,0.05,0.0,0.08,0.0
0.7200054000131786,0,0,0,0,1,64,8719703,3.261540174484253,1.211844801902771,0.9019806981086731,-0.9104387760162354,1.6566675901412964,-0.0026939900126308203,-0.001687947427853942,26.400000000000002,0.11,0.13,1.19,0.06,0.0,0.02,0.0
0.7516978000057861,0,0,0,0,1,64,8719735,3.255148410797119,1.1834660768508911,1.0226539373397827,-0.9160606861114502,2.2663824558258057,0.001563972793519497,-0.00714428024366498,26.400000000000002,0.0,0.1,1.1,0.0,0.0,0.05,0.19
0.7760386999871116,0,0,0,0,1,64,8719759,3.2477328777313232,1.1706829071044922,1.1072784662246704,-0.834730863571167,2.5637433528900146,-0.001179186045192182,-0.01386105827987194,26.400000000000002,0.08,0.1,1.02,0.0,0.12,0.17,0.23
0.813461300014751,0,0,0,0,1,64,8719797,3.2369260787963867,1.1479288339614868,1.2328094244003296,-0.7434929609298706,2.803356885910034,-0.002581927925348282,-0.0005964627489447594,26.42,0.04,0.1,1.0,0.0,0.36,0.31,0.15
0.8438048000098206,0,0,0,0,1,64,8719827,3.2314019203186035,1.1167378425598145,1.3233140707015991,-0.8067919611930847,2.870577335357666,-0.0032980646938085556,9.774585487321019e-05,26.400000000000002,0.0,0.05,0.96,0.0,0.38,0.28,0.07
0.8741602000081912,0,0,0,0,1,64,8719858,3.2290215492248535,1.073275089263916,1.4000133275985718,-0.9610390067100525,2.7664453983306885,-0.005979559384286404,0.0027929043862968683,26.42,0.03,0.04,0.93,0.0,0.29,0.22,0.0
0.9052443999971729,0,0,0,0,1,64,8719889,3.228506565093994,1.0218868255615234,1.4598385095596313,-1.151842713356018,2.544250726699829,0.00057218037545681,0.0036880141124129295,26.42,0.0,0.09,0.9,0.0,0.17,0.16,0.0
0.9366904000053182,0,0,0,0,1,64,8719920,3.2292613983154297,0.9664077758789062,1.5017671585083008,-1.3276283740997314,2.221247434616089,0.00512751704081893,0.0024373314809054136,26.42,0.0,0.08,0.88,0.0,0.11,0.1,0.0
0.9674945000151638,0,0,0,0,1,64,8719951,3.2309842109680176,0.9116957783699036,1.5242656469345093,-1.4489929676055908,1.8191602230072021,0.008279809728264809,-1.8653227016329765e-05,26.400000000000002,0.16,0.0,0.92,0.0,0.09,0.07,0.0
0.9987665000080597,0,0,0,0,1,64,8719982,3.231048583984375,0.8600518107414246,1.5286117792129517,-1.5098695755004883,1.3632501363754272,0.011494931764900684,0.02196500636637211,26.44,0.06,0.0,0.93,0.0,0.05,0.04,0.09
1.041875599999912,0,0,0,0,1,64,8720025,3.2248191833496094,0.796391487121582,1.5270780324935913,-1.5020930767059326,0.8457790613174438,-0.00561797060072422,0.03453832119703293,26.400000000000002,0.0,0.0,0.92,0.0,0.0,0.0,0.44
1.0795324000064284,0,0,0,0,1,64,8720063,3.208202600479126,0.7501165270805359,1.5181297063827515,-1.411276936531067,0.5004760026931763,-0.005418946500867605,0.015192779712378979,26.400000000000002,0.12,0.0,0.9,0.0,0.0,0.06,0.54
1.1084936000115704,0,0,0,0,1,64,8720092,3.194607734680176,0.715601921081543,1.501511573791504,-1.3446027040481567,0.2256828248500824,-0.0006480248994193971,0.0040377601981163025,26.400000000000002,0.01,0.02,0.8300000000000001,0.0,0.0,0.14,0.46
1.1400748000014573,0,0,0,0,1,64,8720124,3.183619499206543,0.6716278195381165,1.4800357818603516,-1.3433926105499268,-0.030580930411815643,0.006496133748441935,-0.003078693524003029,26.42,0.11,0.13,0.77,0.0,0.04,0.23,0.13
1.1658715000085067,0,0,0,0,1,64,8720149,3.183228015899658,0.6348123550415039,1.4652074575424194,-1.3713189363479614,-0.1651313155889511,0.002766640391200781,0.007291658781468868,26.42,0.08,0.09,0.92,0.0,0.06,0.25,0.0
1.2018852999899536,0,0,0,0,1,64,8720185,3.1971728801727295,0.5854692459106445,1.4516572952270508,-1.3764185905456543,-0.23882749676704407,0.004405179992318153,-0.008789539337158203,26.400000000000002,0.12,0.0,1.16,0.0,0.01,0.25,0.0
1.2221391999919433,0,0,0,0,1,64,8720206,3.2070231437683105,0.5639934539794922,1.4478222131729126,-1.3181425333023071,-0.22821013629436493,0.00740975933149457,0.013103127479553223,26.42,0.03,0.0,1.21,0.0,0.0,0.26,0.0
1.2498480000067502,0,0,0,0,1,64,8720233,3.2175371646881104,0.5466084480285645,1.443731665611267,-1.1655975580215454,-0.2035929560661316,0.0031215320341289043,-0.008282627910375595,26.44,0.08,0.0,1.35,0.02,0.09,0.16,0.0
1.28201560000889,0,0,0,0,1,64,8720266,3.2260217666625977,0.5453300476074219,1.4335050582885742,-0.8482750654220581,-0.2234688103199005,0.002097690012305975,-0.0035395068116486073,26.44,0.0,0.0,1.0,0.0,0.04,0.04,0.0
1.3061293000064325,0,0,0,0,1,64,8720290,3.236844778060913,0.5509548187255859,1.4232784509658813,-0.6085727214813232,-0.2665037512779236,0.007124112918972969,0.00467031542211771,26.42,0.01,0.04,1.01,0.0,0.02,0.0,0.0
1.3439420000067912,0,0,0,0,1,64,8720327,3.2595787048339844,0.5811230540275574,1.3972009420394897,-0.17587515711784363,-0.3921469449996948,0.001852115849032998,0.0013093629386276007,26.42,0.01,0.12,0.92,0.06,0.18,0.0,0.0
1.373953900008928,0,0,0,0,1,64,8720357,3.2756738662719727,0.645038902759552,1.3537381887435913,0.4091787040233612,-0.6505199670791626,-0.0014763609506189823,0.002492236904799938,26.400000000000002,0.0,0.21,0.92,0.01,0.14,0.0,0.0
1.406024099997012,0,0,0,0,1,64,8720389,3.2853381633758545,0.7473041415214539,1.293145775794983,1.1855515241622925,-1.0053200721740723,-0.010758478194475174,-0.0012376813683658838,26.400000000000002,0.0,0.15,1.17,0.0,0.23,0.0,0.0
1.4300743000057992,0,0,0,0,1,64,8720414,3.2881999015808105,0.8344853520393372,1.2527509927749634,1.7208242416381836,-1.167969822883606,-0.007120638620108366,-0.007217989303171635,26.44,0.0,0.07,1.25,0.0,0.2,0.0,0.0
1.4686163000005763,0,0,0,0,1,64,8720452,3.2874882221221924,0.9638511538505554,1.2179807424545288,2.2827296257019043,-1.1028499603271484,-0.007203249726444483,-0.009074726141989231,26.44,0.0,0.07,1.1,0.0,0.0,0.0,0.04
1.499619000009261,0,0,0,0,1,64,8720483,3.2822422981262207,1.0714855194091797,1.1995731592178345,2.6017942428588867,-0.957329511642456,-0.006191099062561989,0.003419002518057823,26.400000000000002,0.08,0.06,1.1,0.03,0.0,0.0,0.17
1.5305292000120971,0,0,0,0,1,64,8720514,3.2734858989715576,1.1778415441513062,1.1717056035995483,2.830674886703491,-0.9194091558456421,-0.005071212071925402,0.0019589599687606096,26.400000000000002,0.11,0.1,1.06,0.0,0.0,0.0,0.24
1.5615386000135913,0,0,0,0,1,64,8720545,3.265347719192505,1.2721811532974243,1.1333560943603516,2.9029977321624756,-0.9990293979644775,-0.005450854543596506,0.0018909762147814035,26.42,0.0,0.1,0.93,0.0,0.0,0.0,0.12
1.5926727000041865,0,0,0,0,1,64,8720576,3.261249303817749,1.346068024635315,1.0881038904190063,2.772789478302002,-1.1231237649917603,-0.00852286908775568,0.0037603869568556547,26.400000000000002,0.0,0.11,0.89,0.0,0.0,0.0,0.0
1.623089600005187,0,0,0,0,1,64,8720607,3.2604172229766846,1.4010356664657593,1.0351814031600952,2.5045318603515625,-1.274390697479248,-0.003289550542831421,-0.003352863248437643,26.400000000000002,0.11,0.03,0.85,0.01,0.0,0.0,0.0
1.6547889999928884,0,0,0,0,1,64,8720638,3.261058807373047,1.4391294717788696,0.9789355397224426,2.1551389694213867,-1.4261900186538696,-0.0015102741308510303,-0.007162158843129873,26.42,0.16,0.05,0.89,0.01,0.0,0.0,0.0
1.6864751999964938,0,0,0,0,1,64,8720670,3.2601561546325684,1.4626506567001343,0.9239680171012878,1.756042718887329,-1.5193045139312744,0.007028655614703894,-0.005993962753564119,26.42,0.0,0.0,0.92,0.0,0.0,0.0,0.03
1.7112204000004567,0,0,0,0,1,64,8720695,3.2582335472106934,1.468786597251892,0.8894532322883606,1.4183675050735474,-1.498474359512329,0.004245243035256863,-0.0011582489823922515,26.400000000000002,0.0,0.0,0.89,0.0,0.0,0.0,0.19
1.74735459999647,0,0,0,0,1,64,8720731,3.2500174045562744,1.469042181968689,0.8539161682128906,0.9673743844032288,-1.3432011604309082,0.008861884474754333,0.010646000504493713,26.400000000000002,0.0,0.0,0.91,0.07,0.05,0.02,0.47000000000000003
1.768286700011231,0,0,0,0,1,64,8720752,3.2406914234161377,1.4672523736953735,0.8390874862670898,0.761559009552002,-1.2185802459716797,0.01480686292052269,-0.001511458191089332,26.42,0.08,0.0,0.89,0.1,0.12,0.02,0.56
1.7945932000002358,0,0,0,0,1,64,8720778,3.2273385524749756,1.4600939750671387,0.8263044357299805,0.5181117653846741,-1.0462117195129395,0.020440751686692238,0.0012643748195841908,26.42,0.0,0.0,0.93,0.03,0.2,0.0,0.6
1.8252842999936547,0,0,0,0,1,64,8720809,3.21174955368042,1.446799397468567,0.8104534149169922,0.25744742155075073,-0.88773512840271,0.006389864254742861,-0.00621494697406888,26.400000000000002,0.0,0.0,0.88,0.0,0.18,0.0,0.47000000000000003
1.8562212999968324,0,0,0,0,1,64,8720840,3.2017176151275635,1.4347833395004272,0.7874434590339661,0.07469962537288666,-0.834858775138855,-0.001159651204943657,-0.0017611434450373054,26.400000000000002,0.0,0.0,0.92,0.0,0.12,0.0,0.2
1.8874688000069,0,0,0,0,1,64,8720871,3.1992952823638916,1.4294143915176392,0.7554855346679688,-0.000945780542679131,-0.8820745944976807,0.001125026261433959,-0.002895664656534791,26.400000000000002,0.14,0.0,1.03,0.0,0.03,0.0,0.05
1.9188195999886375,0,0,0,0,1,64,8720902,3.2028138637542725,1.4255794286727905,0.7207155227661133,-0.03188936412334442,-0.9528754353523254,0.0048875329084694386,0.006069339346140623,26.39,0.12,0.0,1.06,0.0,0.0,0.0,0.0
1.950023899989901,0,0,0,0,1,64,8720933,3.2094409465789795,1.416886806488037,0.6959161758422852,-0.09300217032432556,-0.9239704608917236,0.0032048120629042387,0.008960898965597153,26.42,0.0,0.0,1.12,0.06,0.05,0.0,0.0
1.9821194999967702,0,0,0,0,1,64,8720966,3.212000608444214,1.4002686738967896,0.6844110488891602,-0.2037232369184494,-0.7695838809013367,0.004723779857158661,-0.015678200870752335,26.42,0.01,0.0,1.25,0.0,0.04,0.0,0.1
2.007229000009829,0,0,0,0,1,64,8720991,3.210801601409912,1.3808382749557495,0.6844110488891602,-0.3286418616771698,-0.5942709445953369,0.007596862502396107,-0.015409003011882305,26.400000000000002,0.0,0.09,0.9500000000000001,0.0,0.03,0.0,0.0
2.0460846000059973,0,0,0,0,1,64,8721030,3.2203330993652344,1.347346305847168,0.6854336857795715,-0.5066959857940674,-0.3850648105144501,-0.0007623080164194107,-0.023300746455788612,26.400000000000002,0.11,0.14,0.89,0.0,0.0,0.0,0.0
2.077696399996057,0,0,0,0,1,64,8721061,3.2369885444641113,1.3161554336547852,0.7030747532844543,-0.6372509598731995,-0.1480427384376526,-0.007143103983253241,-0.015191388316452503,26.39,0.06,0.23,1.01,0.0,0.0,0.04,0.0
2.109903700009454,0,0,0,0,1,64,8721093,3.256960868835449,1.270391583442688,0.7600876688957214,-0.8484757542610168,0.3613833785057068,0.0004250953206792474,-0.005396972876042128,26.42,0.09,0.12,1.0,0.0,0.0,0.04,0.0
2.1343818999885116,0,0,0,0,1,64,8721118,3.270192861557007,1.2312750816345215,0.8303950428962708,-1.0165972709655762,0.9051789045333862,-9.506545029580593e-05,-0.008147777058184147,26.42,0.0,0.06,1.25,0.08,0.0,0.01,0.0
2.1730186000058893,0,0,0,0,1,64,8721156,3.2757153511047363,1.1870454549789429,0.9623174667358398,-1.0853768587112427,1.7416682243347168,-0.002591831609606743,-0.007215746212750673,26.400000000000002,0.0,0.07,1.16,0.0,0.0,0.0,0.0
2.2041889000101946,0,0,0,0,1,64,8721188,3.269343852996826,1.1704273223876953,1.0801782608032227,-0.9336747527122498,2.305323362350464,-0.0007787174545228481,-1.9583385437726974e-05,26.42,0.04,0.02,1.06,0.0,0.17,0.07,0.21
2.229589599999599,0,0,0,0,1,64,8721213,3.26065993309021,1.1617345809936523,1.1686378717422485,-0.7929973602294922,2.5909109115600586,-0.000719801988452673,-0.002234125044196844,26.400000000000002,0.0,0.21,1.05,0.0,0.27,0.19,0.26
2.2664943000127096,0,0,0,0,1,64,8721250,3.248595952987671,1.1343787908554077,1.2992817163467407,-0.754358172416687,2.8891446590423584,-0.0048067509196698666,0.006653421092778444,26.400000000000002,0.0,0.13,0.98,0.0,0.32,0.18,0.2
2.2913852999918163,0,0,0,0,1,64,8721275,3.2428245544433594,1.1036990880966187,1.3772592544555664,-0.8495756387710571,2.9599132537841797,0.00037690464523620903,0.0019333739764988422,26.400000000000002,0.0,0.11,0.87,0.0,0.32,0.12,0.13
2.3280160000140313,0,0,0,0,1,64,8721311,3.2388973236083984,1.049242615699768,1.469298005104065,-1.0540642738342285,2.8442230224609375,-0.002275578211992979,0.0013612039620056748,26.42,0.0,0.07,0.89,0.0,0.28,0.13,0.03
2.348331999994116,0,0,0,0,1,64,8721332,3.238034248352051,1.0152395963668823,1.5104597806930542,-1.1672147512435913,2.679960012435913,-0.0019280121196061373,-0.004138994961977005,26.400000000000002,0.08,0.06,0.92,0.0,0.23,0.15,0.0
2.3753845999890473,0,0,0,0,1,64,8721359,3.237732172012329,0.972032368183136,1.547019600868225,-1.2760555744171143,2.3679628372192383,-0.00023566374147776514,0.0007068846607580781,26.400000000000002,0.12,0.0,0.92,0.0,0.2,0.19,0.0
2.4067371000128333,0,0,0,0,1,64,8721390,3.2372305393218994,0.9237119555473328,1.5684953927993774,-1.3554863929748535,1.9126917123794556,-0.002859922591596842,-0.006041494198143482,26.400000000000002,0.0,0.0,0.9400000000000001,0.0,0.16,0.2,0.01
2.437286700005643,0,0,0,0,1,64,8721421,3.235926628112793,0.8779481053352356,1.5715633630752563,-1.3909063339233398,1.4144583940505981,-0.004296021070331335,0.02806386724114418,26.42,0.0,0.0,0.96,0.0,0.07,0.17,0.1
2.468184700002894,0,0,0,0,1,64,8721452,3.231325387954712,0.8378090858459473,1.5684953927993774,-1.3687708377838135,0.9901036620140076,-0.002019706182181835,0.022186342626810074,26.42,0.06,0.0,0.91,0.0,0.0,0.14,0.33
2.4996713000000454,0,0,0,0,1,64,8721483,3.2209389209747314,0.8061067461967468,1.557246208190918,-1.2792216539382935,0.6226143836975098,-0.007166125811636448,-0.005296218208968639,26.42,0.08,0.0,0.91,0.0,0.0,0.16,0.45
2.531314099993324,0,0,0,0,1,64,8721515,3.2082467079162598,0.7774724960327148,1.536281943321228,-1.1646758317947388,0.2612748146057129,-0.002893691183999181,0.005975445732474327,26.44,0.0,0.0,0.9,0.0,0.0,0.17,0.41000000000000003
2.556534500006819,0,0,0,0,1,64,8721540,3.1998636722564697,0.7526731491088867,1.5178741216659546,-1.1155340671539307,0.029384132474660873,0.000855669379234314,0.008447278290987015,26.400000000000002,0.0,0.03,0.89,0.0,0.0,0.17,0.27
2.593467700004112,0,0,0,0,1,64,8721577,3.1954410076141357,0.7081877589225769,1.4961427450180054,-1.1358999013900757,-0.1758396327495575,-0.0023187699262052774,-0.0005415828200057149,26.42,0.09,0.01,0.91,0.0,0.0,0.18,0.0
2.618366500013508,0,0,0,0,1,64,8721602,3.1981890201568604,0.6759741902351379,1.4864274263381958,-1.1731871366500854,-0.22807741165161133,-0.0010790475644171238,-0.005262108985334635,26.400000000000002,0.0,0.0,0.98,0.0,0.0,0.21,0.0
2.6560389999940526,0,0,0,0,1,64,8721640,3.2088394165039062,0.6348123550415039,1.477734923362732,-1.1519436836242676,-0.22702796757221222,0.004661873914301395,-0.01105985976755619,26.400000000000002,0.0,0.0,1.12,0.0,0.0,0.32,0.0
2.6875864999892656,0,0,0,0,1,64,8721671,3.21610426902771,0.6138479113578796,1.4710875749588013,-1.0308454036712646,-0.2171134650707245,0.002614702330902219,-0.00462297722697258,26.44,0.08,0.0,1.19,0.0,0.0,0.41000000000000003,0.02
2.7175806000013836,0,0,0,0,1,64,8721701,3.217467784881592,0.606689453125,1.4557479619979858,-0.8306483030319214,-0.28087118268013,0.002317391335964203,-0.0017131934873759747,26.400000000000002,0.03,0.04,1.04,0.05,0.0,0.36,0.0
2.748130299994955,0,0,0,0,1,64,8721732,3.224468469619751,0.6143592000007629,1.4258352518081665,-0.5391502380371094,-0.45782050490379333,0.00664167245849967,-0.003951223101466894,26.42,0.0,0.19,0.73,0.11,0.0,0.22,0.0
2.779849100013962,0,0,0,0,1,64,8721763,3.244138717651367,0.6391585469245911,1.3864628076553345,-0.18374699354171753,-0.678874671459198,0.006080351769924164,0.0008981575374491513,26.42,0.03,0.29,0.98,0.4,0.33,0.0,0.0
2.8105847999977414,0,0,0,0,1,64,8721794,3.268946647644043,0.6897799372673035,1.3399324417114258,0.2928363084793091,-0.8988683223724365,0.0034714112989604473,0.005549245979636908,26.400000000000002,0.03,0.13,1.04,0.0,0.59,0.0,0.0
2.84184050001204,0,0,0,0,1,64,8721825,3.2875499725341797,0.7680130004882812,1.2898222208023071,0.8901419639587402,-1.0985208749771118,0.0013532284647226334,0.002115314593538642,26.42,0.0,0.08,1.35,0.0,0.43,0.0,0.0
2.872858599992469,0,0,0,0,1,64,8721856,3.2952139377593994,0.8631197810173035,1.2478933334350586,1.4862375259399414,-1.1803284883499146,0.0018848382169380784,0.004109179601073265,26.42,0.03,0.06,1.28,0.0,0.2,0.0,0.0
2.9042951999872457,0,0,0,0,1,64,8721888,3.2938458919525146,0.9687086939811707,1.217469573020935,2.00008487701416,-1.1224110126495361,0.0006698009674437344,0.003116299631074071,26.400000000000002,0.06,0.09,1.17,0.0,0.0,0.0,0.06
2.929456999991089,0,0,0,0,1,64,8721913,3.2881600856781006,1.0517994165420532,1.1982946395874023,2.3079419136047363,-1.0368976593017578,0.0022651678882539272,0.007359398063272238,26.400000000000002,0.03,0.1,1.06,0.06,0.0,0.0,0.16
2.966764000011608,0,0,0,0,1,64,8721950,3.2776758670806885,1.1681262254714966,1.1612234115600586,2.585010290145874,-1.0105063915252686,-0.0030178192537277937,0.0012668091803789139,26.400000000000002,0.0,0.06,1.0,0.0,0.0,0.0,0.24
2.991672000003746,0,0,0,0,1,64,8721975,3.2706685066223145,1.2366441488265991,1.129776954650879,2.6277334690093994,-1.0601946115493774,-0.0010096082696691155,0.006763211917132139,26.42,0.01,0.09,0.96,0.0,0.0,0.0,0.12
3.028554799995618,0,0,0,0,1,64,8722012,3.265573263168335,1.316411018371582,1.0817121267318726,2.4883718490600586,-1.1381944417953491,0.0016440681647509336,-0.004653064534068108,26.42,0.0,0.02,0.96,0.0,0.0,0.0,0.03
3.0535891999898013,0,0,0,0,1,64,8722037,3.2642157077789307,1.3588510751724243,1.0492429733276367,2.3088245391845703,-1.177338719367981,-0.0031773478258401155,-0.005018505267798901,26.42,0.0,0.0,0.97,0.0,0.0,0.0,0.07
3.0920072000008076,0,0,0,0,1,64,8722075,3.2590479850769043,1.4112621545791626,0.9986216425895691,2.001077890396118,-1.227342963218689,-0.010960870422422886,-0.006334394682198763,26.42,0.0,0.0,0.88,0.0,0.0,0.0,0.18
3.1229898000019602,0,0,0,0,1,64,8722106,3.2522687911987305,1.440919280052185,0.9597606658935547,1.7189797163009644,-1.2365305423736572,-0.010736661963164806,-0.001679150154814124,26.42,0.17,0.0,0.88,0.0,0.0,0.0,0.23
3.1539159000094514,0,0,0,0,1,64,8722137,3.244495391845703,1.4572817087173462,0.9265244603157043,1.3980900049209595,-1.196499228477478,-0.010529476217925549,-0.004087388049811125,26.400000000000002,0.0,0.0,0.85,0.02,0.0,0.0,0.31
3.1847945000045,0,0,0,0,1,64,8722168,3.236198663711548,1.4595826864242554,0.8994242548942566,1.037082314491272,-1.1089133024215698,0.001859499723650515,-0.005175088532269001,26.400000000000002,0.08,0.0,0.89,0.03,0.03,0.0,0.36
3.2166170999989845,0,0,0,0,1,64,8722200,3.224256992340088,1.4598382711410522,0.8743693232536316,0.7351862788200378,-1.012039303779602,0.006092042662203312,0.003199605504050851,26.400000000000002,0.0,0.0,0.89,0.02,0.12,0.0,0.5
3.241862900002161,0,0,0,0,1,64,8722225,3.2134804725646973,1.4595826864242554,0.8569841384887695,0.5615195035934448,-0.9419615268707275,0.01775556057691574,-0.00028642304823733866,26.400000000000002,0.0,0.0,0.89,0.0,0.18,0.0,0.51
3.278195199993206,0,0,0,0,1,64,8722262,3.2007076740264893,1.451912760734558,0.8306506276130676,0.322370707988739,-0.8618217706680298,0.0032946858555078506,-0.005474644713103771,26.42,0.0,0.0,0.86,0.0,0.21,0.0,0.28
3.3038655999989714,0,0,0,0,1,64,8722287,3.1969425678253174,1.4462881088256836,0.8096863627433777,0.1915796399116516,-0.8497905731201172,-0.004535505082458258,0.0008355868048965931,26.42,0.0,0.0,0.93,0.0,0.16,0.0,0.12
3.3399466999981087,0,0,0,0,1,64,8722323,3.1978564262390137,1.4434757232666016,0.7705698013305664,0.10051567852497101,-0.9165681600570679,0.007087562698870897,0.002753881271928549,26.42,0.19,0.0,1.05,0.0,0.02,0.0,0.0
3.364562200004002,0,0,0,0,1,64,8722348,3.2019405364990234,1.4434757232666016,0.7386118769645691,0.07839608192443848,-0.9944568872451782,0.007166752126067877,-0.0010165560524910688,26.42,0.01,0.0,1.06,0.05,0.0,0.0,0.0
3.402010899997549,0,0,0,0,1,64,8722385,3.2106313705444336,1.4429645538330078,0.6959161758422852,0.0543665774166584,-1.0589439868927002,0.02353191003203392,0.004740549251437187,26.400000000000002,0.0,0.0,1.21,0.07,0.04,0.0,0.01
3.4330729999928735,0,0,0,0,1,64,8722416,3.212679624557495,1.4404077529907227,0.6734177470207214,0.024011971428990364,-0.9787855744361877,0.017003953456878662,-0.0018837337847799063,26.400000000000002,0.0,0.0,1.21,0.03,0.04,0.0,0.18
3.464147199993022,0,0,0,0,1,64,8722448,3.2088754177093506,1.4204660654067993,0.6690714955329895,-0.14188680052757263,-0.7528027296066284,0.0065883491188287735,-0.01109373290091753,26.42,0.0,0.05,1.06,0.0,0.0,0.0,0.09
3.488762199995108,0,0,0,0,1,64,8722472,3.2107784748077393,1.3972007036209106,0.6693270802497864,-0.32165825366973877,-0.576321542263031,0.002692738315090537,-0.026969360187649727,26.400000000000002,0.0,0.05,0.84,0.0,0.0,0.0,0.0
3.5263334999908693,0,0,0,0,1,64,8722510,3.2282156944274902,1.357317328453064,0.6754630208015442,-0.560581624507904,-0.34015628695487976,-0.004287993535399437,-0.011310181580483913,26.42,0.08,0.25,0.96,0.0,0.0,0.0,0.0
3.5574462999938987,0,0,0,0,1,64,8722541,3.2469797134399414,1.3143657445907593,0.7115116119384766,-0.7755529284477234,0.036456502974033356,-0.0015254353638738394,-0.011576228775084019,26.42,0.11,0.14,1.0,0.0,0.0,0.16,0.0
3.58816770001431,0,0,0,0,1,64,8722572,3.2653820514678955,1.2616990804672241,0.7876994013786316,-1.0293515920639038,0.6742754578590393,0.0019820639863610268,-0.008310631848871708,26.42,0.12,0.06,1.09,0.03,0.0,0.15,0.0
3.6185575000126846,0,0,0,0,1,64,8722602,3.2745823860168457,1.2169580459594727,0.8843399882316589,-1.1692144870758057,1.352755069732666,0.003442587796598673,-0.008246331475675106,26.400000000000002,0.06,0.1,1.1500000000000001,0.08,0.0,0.11,0.0
3.6499274999951012,0,0,0,0,1,64,8722633,3.2724342346191406,1.1873010396957397,0.9935083389282227,-1.1261752843856812,1.9566631317138672,0.00653624115511775,0.00164469750598073,26.42,0.0,0.13,1.1500000000000001,0.0,0.06,0.15,0.09
3.6819368000142276,0,0,0,0,1,64,8722665,3.263950824737549,1.1694046258926392,1.1039549112319946,-0.9644301533699036,2.39308762550354,0.0065990108996629715,-0.0033589128870517015,26.400000000000002,0.12,0.16,1.05,0.0,0.18,0.3,0.18
3.7057926999987103,0,0,0,0,1,64,8722689,3.2570183277130127,1.1545761823654175,1.1834663152694702,-0.8765526413917542,2.593543291091919,0.005297561641782522,-0.00033239455660805106,26.400000000000002,0.09,0.17,0.96,0.0,0.28,0.36,0.15
3.7443533999903593,0,0,0,0,1,64,8722728,3.2490241527557373,1.1146925687789917,1.3077186346054077,-0.9075239300727844,2.797377824783325,0.0011043904814869165,-0.0035682786256074905,26.42,0.03,0.08,0.96,0.0,0.35000000000000003,0.31,0.07
3.776745999988634,0,0,0,0,1,64,8722760,3.2449963092803955,1.0714855194091797,1.3905534744262695,-1.0272146463394165,2.749267578125,0.0016942752990871668,-0.004092019982635975,26.42,0.0,0.06,0.91,0.0,0.27,0.3,0.03
3.8007351999985985,0,0,0,0,1,64,8722784,3.2431066036224365,1.0349255800247192,1.4406636953353882,-1.1351103782653809,2.608593463897705,0.007089252583682537,-0.007495028432458639,26.400000000000002,0.0,0.07,0.87,0.0,0.2,0.31,0.0
3.8385503999888897,0,0,0,0,1,64,8722822,3.2413170337677,0.9753559231758118,1.4966539144515991,-1.2794615030288696,2.2441985607147217,0.005187519825994968,-0.0023254863917827606,26.42,0.0,0.03,0.91,0.0,0.16,0.32,0.0
3.8697847000148613,0,0,0,0,1,64,8722853,3.239814281463623,0.9290809631347656,1.519408106803894,-1.3404890298843384,1.8392510414123535,-0.006527308374643326,0.0003267716383561492,26.42,0.16,0.01,0.9400000000000001,0.0,0.14,0.3,0.01
3.9018966000003275,0,0,0,0,1,64,8722885,3.2377054691314697,0.8868964314460754,1.52349853515625,-1.3358474969863892,1.3581554889678955,-0.0017614152748137712,-0.02020905911922455,26.400000000000002,0.03,0.0,0.97,0.0,0.05,0.27,0.13
3.9258200000040233,0,0,0,0,1,64,8722909,3.2338314056396484,0.8595404624938965,1.52349853515625,-1.297471046447754,1.0479768514633179,-0.0025208592414855957,-0.03239220008254051,26.42,0.0,0.0,0.97,0.0,0.0,0.23,0.3
3.9643662000016775,0,0,0,0,1,64,8722948,3.2196450233459473,0.8240032196044922,1.5186409950256348,-1.1695905923843384,0.6568180322647095,0.0034278645180165768,-0.019115764647722244,26.400000000000002,0.0,0.0,1.0,0.0,0.0,0.23,0.54
3.9955223000142723,0,0,0,0,1,64,8722979,3.2034757137298584,0.8038058280944824,1.5033012628555298,-1.028749942779541,0.3494037389755249,0.000668237276840955,-0.003419474931433797,26.42,0.09,0.0,0.9400000000000001,0.0,0.0,0.27,0.63
4.026351300009992,0,0,0,0,1,64,8723010,3.186424493789673,0.7871877551078796,1.4787575006484985,-0.8906572461128235,0.03834845870733261,0.0030129929073154926,-0.0001304070756305009,26.400000000000002,0.08,0.03,0.8300000000000001,0.0,0.0,0.3,0.47000000000000003
4.057466199999908,0,0,0,0,1,64,8723041,3.1748805046081543,0.7682685852050781,1.4549808502197266,-0.8053056597709656,-0.19307614862918854,-0.0007481956854462624,0.0026531475596129894,26.42,0.0,0.22,0.74,0.01,0.0,0.27,0.18
4.088481399987359,0,0,0,0,1,64,8723072,3.174983024597168,0.7386116981506348,1.4473110437393188,-0.8312267661094666,-0.23201203346252441,0.002231995575129986,-0.006177457049489021,26.42,0.0,0.0,0.92,0.02,0.0,0.21,0.0
4.120697700011078,0,0,0,0,1,64,8723104,3.186716079711914,0.6956602931022644,1.4534467458724976,-0.968143880367279,-0.10768508166074753,-0.0032714707776904106,0.010385795496404171,26.42,0.01,0.0,1.04,0.0,0.0,0.19,0.0
4.14486639999086,0,0,0,0,1,64,8723128,3.1973135471343994,0.6634467244148254,1.4562591314315796,-1.0601959228515625,-0.04633340612053871,0.0077117253094911575,-0.008595903404057026,26.44,0.06,0.0,1.08,0.0,0.0,0.24,0.0
4.182374800002435,0,0,0,0,1,64,8723166,3.207301139831543,0.6230518221855164,1.4531911611557007,-1.0732628107070923,-0.04764565825462341,0.00736918905749917,-0.015289350412786007,26.400000000000002,0.09,0.0,1.35,0.02,0.17,0.17,0.04
4.213262200006284,0,0,0,0,1,64,8723197,3.2088515758514404,0.6069450378417969,1.4378513097763062,-0.9362266063690186,-0.15606722235679626,0.004783698823302984,-0.004805784206837416,26.400000000000002,0.14,0.08,1.0,0.0,0.05,0.02,0.0
4.244511800003238,0,0,0,0,1,64,8723228,3.220564365386963,0.6092459559440613,1.4125407934188843,-0.664900004863739,-0.33794552087783813,0.0031370564829558134,-0.0038739540614187717,26.400000000000002,0.03,0.18,0.85,0.0,0.01,0.0,0.0
4.275301599991508,0,0,0,0,1,64,8723259,3.245065212249756,0.6187054514884949,1.3872299194335938,-0.4000835418701172,-0.469698429107666,0.0010184450075030327,0.000608292524702847,26.44,0.0,0.05,0.96,0.12,0.28,0.0,0.0
4.3068702000018675,0,0,0,0,1,64,8723290,3.267137289047241,0.6575663685798645,1.3499031066894531,0.01958874985575676,-0.6514914035797119,0.00679220724850893,0.002921951236203313,26.400000000000002,0.0,0.17,1.01,0.03,0.28,0.0,0.0
4.337181000009878,0,0,0,0,1,64,8723321,3.2792856693267822,0.732475757598877,1.2936569452285767,0.6599212288856506,-0.9613398313522339,0.0037728063762187958,0.0070616453886032104,26.42,0.0,0.16,1.32,0.0,0.4,0.0,0.0
4.367192900012014,0,0,0,0,1,64,8723351,3.2849881649017334,0.8263041377067566,1.2394565343856812,1.3193862438201904,-1.2021490335464478,-0.001006868900731206,0.00022566039115190506,26.42,0.08,0.08,1.24,0.0,0.33,0.0,0.0
4.3984322999895085,0,0,0,0,1,64,8723382,3.2837774753570557,0.9303591847419739,1.2016185522079468,1.8862255811691284,-1.230257511138916,-0.0011909336317330599,0.006296253763139248,26.400000000000002,0.11,0.07,1.1400000000000001,0.0,0.06,0.0,0.07
4.430189300008351,0,0,0,0,1,64,8723414,3.2774157524108887,1.0367151498794556,1.1765632629394531,2.298534870147705,-1.1041697263717651,-0.0028968979604542255,0.006536266300827265,26.42,0.06,0.09,1.0,0.03,0.0,0.0,0.23
4.45507950001047,0,0,0,0,1,64,8723439,3.2695395946502686,1.118271827697754,1.1566215753555298,2.522045373916626,-1.019347906112671,-0.0033862153068184853,0.004151633009314537,26.42,0.0,0.09,0.97,0.0,0.0,0.0,0.26
4.4922619000135455,0,0,0,0,1,64,8723476,3.258603096008301,1.2322977781295776,1.1172494888305664,2.7030856609344482,-1.0214425325393677,-0.0014638083521276712,-0.001409101183526218,26.42,0.03,0.11,0.86,0.0,0.0,0.0,0.18
4.5231562000117265,0,0,0,0,1,64,8723507,3.2528538703918457,1.3146214485168457,1.0783885717391968,2.6975061893463135,-1.0811243057250977,-0.008094223216176033,0.003555407514795661,26.42,0.0,0.06,0.8200000000000001,0.0,0.0,0.0,0.1
4.554243699996732,0,0,0,0,1,64,8723538,3.2498316764831543,1.3790487051010132,1.038504958152771,2.5361783504486084,-1.1377230882644653,-0.0056525287218391895,-0.006613324396312237,26.42,0.0,0.06,0.85,0.0,0.0,0.0,0.03
4.585540100000799,0,0,0,0,1,64,8723569,3.2484521865844727,1.42711341381073,0.9991328120231628,2.2687976360321045,-1.1767847537994385,0.0003493398253340274,0.005105909425765276,26.42,0.08,0.0,0.9400000000000001,0.0,0.0,0.0,0.0
4.6174177000066265,0,0,0,0,1,64,8723601,3.2471532821655273,1.461883544921875,0.9610392451286316,1.937931776046753,-1.1846014261245728,-0.0003413749800529331,-0.0024318955838680267,26.42,0.0,0.0,0.96,0.0,0.0,0.0,0.06
4.642011599993566,0,0,0,0,1,64,8723625,3.2451889514923096,1.4785016775131226,0.9352172017097473,1.6678904294967651,-1.1616809368133545,-0.0017996185924857855,0.0017454901244491339,26.42,0.06,0.0,0.92,0.0,0.0,0.0,0.15
4.67900030000601,0,0,0,0,1,64,8723662,3.2389721870422363,1.489750862121582,0.9022366404533386,1.2342489957809448,-1.0784341096878052,-0.00231761671602726,-0.002506290329620242,26.400000000000002,0.0,0.0,0.9,0.0,0.01,0.06,0.31
4.709839199989801,0,0,0,0,1,64,8723693,3.229949712753296,1.4882169961929321,0.8797381520271301,0.8759401440620422,-0.9816759824752808,-0.0018341424874961376,-0.0032553202472627163,26.400000000000002,0.0,0.0,0.9500000000000001,0.01,0.08,0.06,0.51
4.740952499996638,0,0,0,0,1,64,8723724,3.2147843837738037,1.4831037521362305,0.8610747456550598,0.5918863415718079,-0.8793050050735474,0.008667705580592155,0.0032051706220954657,26.400000000000002,0.0,0.0,0.89,0.05,0.16,0.04,0.6
4.771843499998795,0,0,0,0,1,64,8723755,3.199038028717041,1.468786597251892,0.8436896204948425,0.3064842224121094,-0.7839697599411011,0.004529102705419064,0.011622757650911808,26.42,0.0,0.02,0.8300000000000001,0.03,0.2,0.01,0.43
4.802382399997441,0,0,0,0,1,64,8723786,3.1906778812408447,1.451912760734558,0.8227249979972839,0.06695156544446945,-0.7485942244529724,0.002088909037411213,0.000872339413035661,26.42,0.0,0.02,0.91,0.0,0.17,0.0,0.15
4.833569300011732,0,0,0,0,1,64,8723817,3.1897616386413574,1.443731427192688,0.7912785410881042,-0.036589331924915314,-0.8105111122131348,0.002497198758646846,0.004820810630917549,26.42,0.08,0.0,1.0,0.0,0.07,0.0,0.0
4.863872399990214,0,0,0,0,1,64,8723847,3.195810317993164,1.4427088499069214,0.7562525868415833,-0.040911272168159485,-0.9064472913742065,0.011316481046378613,0.0021768691949546337,26.42,0.0,0.0,1.08,0.0,0.0,0.0,0.0
4.894151499989675,0,0,0,0,1,64,8723878,3.2040188312530518,1.4421974420547485,0.7242946624755859,-0.026962745934724808,-0.9516866207122803,0.009924500249326229,0.0007784445770084858,26.42,0.0,0.0,1.2,0.03,0.0,0.0,0.0
4.926104699989082,0,0,0,0,1,64,8723910,3.206784963607788,1.430948257446289,0.7040974497795105,-0.09873835742473602,-0.8733203411102295,0.004779874347150326,0.004214627668261528,26.42,0.01,0.03,1.33,0.0,0.0,0.0,0.04
4.951201499992749,0,0,0,0,1,64,8723935,3.2066612243652344,1.4087055921554565,0.7007735371589661,-0.2654229998588562,-0.7149631381034851,0.0006298709777183831,0.0010748963104560971,26.400000000000002,0.0,0.08,0.9500000000000001,0.0,0.0,0.0,0.0
4.988541900005657,0,0,0,0,1,64,8723972,3.217670202255249,1.3693333864212036,0.7030747532844543,-0.5252106189727783,-0.4601139426231384,0.0015774078201502562,-0.01056854147464037,26.400000000000002,0.08,0.14,0.89,0.0,0.02,0.01,0.0
5.01981440000236,0,0,0,0,1,64,8724003,3.2352919578552246,1.3340517282485962,0.7168805003166199,-0.6914437413215637,-0.2314274162054062,0.005699916742742062,-0.007631221786141396,26.42,0.09,0.23,1.06,0.0,0.0,0.19,0.0
5.0502302999957465,0,0,0,0,1,64,8724034,3.255474328994751,1.2870097160339355,0.7641782760620117,-0.9047932028770447,0.21451310813426971,-0.007571613881736994,-0.007800087332725525,26.400000000000002,0.0,0.17,1.0,0.0,0.0,0.28,0.0
5.0810789999959525,0,0,0,0,1,64,8724064,3.2718515396118164,1.2348543405532837,0.844456672668457,-1.1292154788970947,0.8516653180122375,0.001939077628776431,-0.003202354069799185,26.42,0.03,0.08,1.16,0.04,0.0,0.25,0.0
5.1117761000059545,0,0,0,0,1,64,8724095,3.277751922607422,1.1911360025405884,0.9490229487419128,-1.2251032590866089,1.5465857982635498,-0.00035210364148952067,-0.0058044916950166225,26.42,0.0,0.09,1.17,0.04,0.0,0.19,0.0
5.143033100001048,0,0,0,0,1,64,8724126,3.2724392414093018,1.1673593521118164,1.0617704391479492,-1.1153191328048706,2.1374244689941406,-0.00529465964064002,-0.005431573372334242,26.42,0.0,0.15,1.07,0.0,0.17,0.24,0.21
5.174222700006794,0,0,0,0,1,64,8724158,3.260368585586548,1.1520195007324219,1.1750293970108032,-0.9291806817054749,2.5376367568969727,0.0012559466995298862,-0.009491010569036007,26.42,0.0,0.11,1.03,0.0,0.23,0.35000000000000003,0.33
5.199375800002599,0,0,0,0,1,64,8724183,3.2499489784240723,1.135145664215088,1.265022873878479,-0.8546560406684875,2.7769176959991455,0.00022597858333028853,0.0014852663734927773,26.42,0.03,0.13,0.97,0.0,0.27,0.35000000000000003,0.31
5.235966200008988,0,0,0,0,1,64,8724219,3.2370707988739014,1.0993528366088867,1.380838394165039,-0.8859747052192688,2.9306013584136963,-0.0010254222434014082,-0.0026633129455149174,26.44,0.06,0.1,0.86,0.0,0.21,0.29,0.17
5.25625229999423,0,0,0,0,1,64,8724240,3.232504367828369,1.0745534896850586,1.43682861328125,-0.9401319026947021,2.8857603073120117,-0.004982078447937965,-0.00428932486101985,26.400000000000002,0.0,0.1,0.88,0.0,0.15,0.32,0.17
5.282750599988503,0,0,0,0,1,64,8724266,3.227290391921997,1.0408058166503906,1.4920520782470703,-1.023020625114441,2.718783378601074,-0.0033428939059376717,-0.00024645141093060374,26.400000000000002,0.03,0.08,0.89,0.0,0.08,0.32,0.09
5.313479000004008,0,0,0,0,1,64,8724297,3.2236995697021484,0.9981099963188171,1.5375601053237915,-1.1193245649337769,2.382775068283081,0.00119088776409626,0.0006137720192782581,26.42,0.04,0.07,0.89,0.0,0.07,0.33,0.05
5.343961600010516,0,0,0,0,1,64,8724327,3.2212905883789062,0.9564369320869446,1.5598028898239136,-1.1924629211425781,1.9518911838531494,0.005570759065449238,-0.003781620180234313,26.42,0.09,0.06,0.92,0.0,0.08,0.3,0.03
5.3751881000061985,0,0,0,0,1,64,8724359,3.21938157081604,0.913996696472168,1.5628708600997925,-1.2340251207351685,1.4299050569534302,-0.006368549074977636,0.025455806404352188,26.400000000000002,0.09,0.0,0.96,0.0,0.02,0.27,0.15
5.400422200007597,0,0,0,0,1,64,8724384,3.215012311935425,0.8822944760322571,1.5608254671096802,-1.2394756078720093,1.0762218236923218,0.003153282217681408,0.025622021406888962,26.400000000000002,0.16,0.0,0.92,0.0,0.0,0.2,0.39
5.438402300002053,0,0,0,0,1,64,8724422,3.198715925216675,0.8390873074531555,1.5495762825012207,-1.2092410326004028,0.6313480734825134,0.007109520491212606,0.0060215899720788,26.42,0.0,0.0,0.84,0.0,0.0,0.13,0.6
5.470022800000152,0,0,0,0,1,64,8724453,3.1820497512817383,0.8048284649848938,1.530401587486267,-1.176855206489563,0.28952229022979736,0.0009106117067858577,0.00048585847252979875,26.400000000000002,0.0,0.03,0.8200000000000001,0.0,0.0,0.06,0.53
5.5007905999955256,0,0,0,0,1,64,8724484,3.1686534881591797,0.7672459483146667,1.505602240562439,-1.1790040731430054,-0.011358198709785938,0.0009487717179581523,-0.0017166112083941698,26.44,0.03,0.14,0.77,0.0,0.0,0.0,0.23
5.5320124000136275,0,0,0,0,1,64,8724515,3.166447162628174,0.7250614166259766,1.4882169961929321,-1.2229704856872559,-0.177496537566185,0.004640829283744097,0.004789441358298063,26.42,0.06,0.07,0.91,0.0,0.0,0.0,0.0
5.562457899999572,0,0,0,0,1,64,8724546,3.174484968185425,0.6813430786132812,1.4831037521362305,-1.2763868570327759,-0.18496672809123993,-0.009208406321704388,0.01486944779753685,26.42,0.03,0.0,1.05,0.0,0.0,0.05,0.0
5.592908099992201,0,0,0,0,1,64,8724576,3.1863436698913574,0.6452944874763489,1.4831037521362305,-1.266177773475647,-0.12809473276138306,-0.002781894290819764,0.008235805667936802,26.400000000000002,0.12,0.0,1.17,0.0,0.0,0.18,0.0
5.624140100000659,0,0,0,0,1,64,8724608,3.195808172225952,0.6174271702766418,1.4818254709243774,-1.1634445190429688,-0.09841228276491165,0.005313011817634106,0.008443828672170639,26.42,0.0,0.0,1.21,0.0,0.07,0.3,0.0
5.649293399997987,0,0,0,0,1,64,8724633,3.1963813304901123,0.6048997044563293,1.4808028936386108,-1.018595814704895,-0.08034174144268036,-0.004458549898117781,0.0019969549030065536,26.42,0.16,0.07,1.22,0.0,0.2,0.25,0.07
5.685868100001244,0,0,0,0,1,64,8724669,3.199782371520996,0.6077120900154114,1.4644403457641602,-0.6887937188148499,-0.17906738817691803,0.00023289464297704399,-0.00642821192741394,26.42,0.0,0.13,0.88,0.06,0.02,0.21,0.0
5.706326799991075,0,0,0,0,1,64,8724690,3.209282159805298,0.6189611554145813,1.4457769393920898,-0.45673027634620667,-0.3088178038597107,-0.0033501095604151487,-0.004469472449272871,26.44,0.12,0.32,0.99,0.26,0.14,0.04,0.0
5.733196699991822,0,0,0,0,1,64,8724717,3.2283949851989746,0.6514304280281067,1.4110065698623657,-0.07280956953763962,-0.5372903347015381,0.00018175819423049688,-0.0015680836513638496,26.44,0.16,0.11,1.0,0.12,0.33,0.0,0.0
5.763301900005899,0,0,0,0,1,64,8724747,3.248828649520874,0.7153461575508118,1.363197684288025,0.49543821811676025,-0.8163477778434753,0.002954579424113035,-0.00023207603953778744,26.42,0.08,0.14,0.99,0.0,0.33,0.0,0.0
5.793956600013189,0,0,0,0,1,64,8724777,3.261906623840332,0.7997152209281921,1.3156442642211914,1.1097180843353271,-1.0367738008499146,-0.0028532100841403008,-0.0002763884258456528,26.400000000000002,0.0,0.12,1.16,0.0,0.29,0.0,0.0
5.825650699989637,0,0,0,0,1,64,8724809,3.267810821533203,0.8994238972663879,1.2749935388565063,1.6798213720321655,-1.1141228675842285,0.005941546987742186,0.004625487606972456,26.400000000000002,0.0,0.14,1.2,0.0,0.15,0.0,0.0
5.850323799997568,0,0,0,0,1,64,8724834,3.2674612998962402,0.9804692268371582,1.2509613037109375,2.041043758392334,-1.0849952697753906,0.0002198861911892891,-0.0002851618337444961,26.400000000000002,0.0,0.13,1.21,0.0,0.0,0.0,0.01
5.887486899999203,0,0,0,0,1,64,8724871,3.2614998817443848,1.1029319763183594,1.2184921503067017,2.451220989227295,-1.008480429649353,-0.0019208790035918355,0.0023101663682609797,26.42,0.06,0.14,1.05,0.02,0.0,0.0,0.17
5.912427100003697,0,0,0,0,1,64,8724896,3.2554540634155273,1.1826990842819214,1.1916475296020508,2.6247048377990723,-1.0132887363433838,0.002518522785976529,-0.001146665308624506,26.400000000000002,0.0,0.07,1.02,0.0,0.0,0.0,0.2
5.949682400008896,0,0,0,0,1,64,8724933,3.2475128173828125,1.2836861610412598,1.1451168060302734,2.6659626960754395,-1.0854822397232056,-0.001651625381782651,0.006693229544907808,26.42,0.12,0.1,0.88,0.0,0.0,0.0,0.1
5.974240600015037,0,0,0,0,1,64,8724958,3.244668960571289,1.3360971212387085,1.1113691329956055,2.545210838317871,-1.1432440280914307,-0.006224503740668297,0.005858482327312231,26.400000000000002,0.04,0.04,0.91,0.01,0.0,0.0,0.01
6.012205300008645,0,0,0,0,1,64,8724996,3.24277663230896,1.3948997259140015,1.0571686029434204,2.221684217453003,-1.23456871509552,0.0007830393151380122,-0.0022645355202257633,26.42,0.01,0.07,0.87,0.0,0.0,0.0,0.01
6.043350299994927,0,0,0,0,1,64,8725027,3.2407729625701904,1.4273691177368164,1.010382056236267,1.8998520374298096,-1.3100109100341797,0.0021190023981034756,0.008870890364050865,26.44,0.12,0.1,0.89,0.0,0.0,0.0,0.05
6.0753786000132095,0,0,0,0,1,64,8725059,3.2375128269195557,1.4475663900375366,0.9658966064453125,1.5426080226898193,-1.337613582611084,-0.003420281922444701,0.0069650765508413315,26.400000000000002,0.0,0.03,0.89,0.0,0.0,0.0,0.1
6.100395099987509,0,0,0,0,1,64,8725084,3.234165668487549,1.4534467458724976,0.9362395405769348,1.2503435611724854,-1.3079020977020264,-0.0014465436106547713,0.002715841867029667,26.42,0.0,0.0,0.87,0.0,0.0,0.0,0.15
6.137398099992424,0,0,0,0,1,64,8725121,3.227538585662842,1.4539580345153809,0.9017251133918762,0.8484578132629395,-1.1928993463516235,-0.00656597875058651,0.004568653181195259,26.42,0.06,0.0,0.91,0.06,0.01,0.0,0.34
6.162486899993382,0,0,0,0,1,64,8725146,3.2188985347747803,1.4539580345153809,0.8825502395629883,0.6496301889419556,-1.0943514108657837,-0.006180907599627972,0.0012950047384947538,26.42,0.0,0.0,0.93,0.07,0.1,0.0,0.48
6.200140000000829,0,0,0,0,1,64,8725184,3.2006795406341553,1.4521684646606445,0.8557055592536926,0.4243643879890442,-0.9611932039260864,-0.004593946039676666,0.0006259004585444927,26.400000000000002,0.0,0.01,0.86,0.03,0.2,0.0,0.51
6.230969199998071,0,0,0,0,1,64,8725214,3.1886367797851562,1.4457768201828003,0.8334630131721497,0.2558881938457489,-0.8949189782142639,0.0015929990913718939,0.007166729774326086,26.42,0.12,0.05,0.84,0.04,0.23,0.0,0.32
6.262135199998738,0,0,0,0,1,64,8725246,3.182748317718506,1.4388738870620728,0.8048286437988281,0.11734781414270401,-0.8892127275466919,0.005602280609309673,0.005497078876942396,26.42,0.06,0.02,0.92,0.03,0.22,0.0,0.07
6.287455100013176,0,0,0,0,1,64,8725271,3.1834397315979004,1.4360615015029907,0.7787510752677917,0.06275369971990585,-0.9214756488800049,0.0031221203971654177,0.001982711721211672,26.42,0.11,0.0,1.03,0.01,0.14,0.0,0.02
6.324794200016186,0,0,0,0,1,64,8725308,3.1880288124084473,1.4360615015029907,0.7393789291381836,0.040517061948776245,-0.9676764607429504,0.0031164756510406733,-0.000120578333735466,26.42,0.0,0.0,1.05,0.0,0.06,0.0,0.0
6.3494585000153165,0,0,0,0,1,64,8725333,3.19291615486145,1.4358059167861938,0.7163689732551575,0.03266042843461037,-0.9635918140411377,0.007394586689770222,-0.0011711751576513052,26.400000000000002,0.0,0.0,1.11,0.03,0.08,0.0,0.03
6.387299599999096,0,0,0,0,1,64,8725371,3.195432662963867,1.4283918142318726,0.6956602931022644,-0.03206019848585129,-0.8374106287956238,0.004928179085254669,-0.005527750588953495,26.44,0.16,0.0,1.22,0.0,0.07,0.0,0.09
6.417770700005349,0,0,0,0,1,64,8725401,3.195387601852417,1.4069160223007202,0.6931037902832031,-0.19950935244560242,-0.6419365406036377,0.00389073695987463,-0.022662358358502388,26.42,0.12,0.07,0.98,0.0,0.03,0.0,0.0
6.44921130000148,0,0,0,0,1,64,8725433,3.2066071033477783,1.3754693269729614,0.6931037902832031,-0.4232727289199829,-0.4515090882778168,-0.0025888930540531874,-0.026780642569065094,26.400000000000002,0.0,0.14,0.85,0.0,0.09,0.0,0.0
6.474718899989966,0,0,0,0,1,64,8725458,3.222931385040283,1.3463236093521118,0.7023077011108398,-0.5868335962295532,-0.28650957345962524,-0.0008928957395255566,-0.013428463600575924,26.42,0.0,0.29,0.99,0.0,0.0,0.21,0.0
6.511900000012247,0,0,0,0,1,64,8725495,3.2483434677124023,1.2903333902359009,0.7554855346679688,-0.8753894567489624,0.23149999976158142,-0.005035277921706438,-0.009958713315427303,26.42,0.0,0.14,0.99,0.0,0.0,0.4,0.0
6.536485199991148,0,0,0,0,1,64,8725520,3.2660229206085205,1.2509613037109375,0.8188902735710144,-1.04420006275177,0.7420849204063416,-0.007832420989871025,-0.0077004097402095795,26.400000000000002,0.0,0.07,1.23,0.02,0.0,0.38,0.0
6.573570600012317,0,0,0,0,1,64,8725557,3.276370048522949,1.2108221054077148,0.9364954829216003,-1.0770562887191772,1.5141925811767578,-0.002586919814348221,-0.00509270466864109,26.44,0.0,0.0,1.22,0.03,0.0,0.33,0.0
6.598700300004566,0,0,0,0,1,64,8725582,3.27251935005188,1.1959935426712036,1.0252103805541992,-0.9741515517234802,1.9818978309631348,0.0040837908163666725,0.0012156108859926462,26.42,0.0,0.08,1.17,0.0,0.02,0.37,0.12
6.635677000012947,0,0,0,0,1,64,8725619,3.2612357139587402,1.178097128868103,1.153042197227478,-0.8053541779518127,2.46248197555542,0.006100434809923172,-0.003131724428385496,26.400000000000002,0.0,0.17,1.04,0.0,0.2,0.5,0.24
6.660586300014984,0,0,0,0,1,64,8725644,3.2531228065490723,1.1596893072128296,1.237155556678772,-0.774417519569397,2.668513059616089,0.0032082716934382915,-0.004544908180832863,26.400000000000002,0.0,0.07,1.01,0.0,0.33,0.54,0.21
6.698337900015758,0,0,0,0,1,64,8725682,3.2436184883117676,1.1185275316238403,1.3504146337509155,-0.8646116852760315,2.7838058471679688,-0.0038341896142810583,0.003994601778686047,26.44,0.03,0.03,1.0,0.0,0.4,0.51,0.08
6.728878399997484,0,0,0,0,1,64,8725712,3.238731861114502,1.0783883333206177,1.4196993112564087,-0.9893001317977905,2.6626646518707275,-0.0005185265326872468,-0.010207895189523697,26.42,0.0,0.08,0.96,0.0,0.3,0.52,0.07
6.759959599992726,0,0,0,0,1,64,8725743,3.2345807552337646,1.03262460231781,1.4723659753799438,-1.1229201555252075,2.4064736366271973,-0.0011412196327000856,-0.013667898252606392,26.400000000000002,0.0,0.05,0.89,0.0,0.21,0.51,0.06
6.791867799998727,0,0,0,0,1,64,8725775,3.2311649322509766,0.9835371971130371,1.5073919296264648,-1.238716721534729,2.0417416095733643,0.0021569221280515194,-0.006159077398478985,26.400000000000002,0.11,0.0,0.89,0.0,0.19,0.48,0.07
6.816588399989996,0,0,0,0,1,64,8725800,3.228571891784668,0.9459546208381653,1.5214533805847168,-1.3001102209091187,1.708661437034607,0.005929133854806423,0.011231794022023678,26.42,0.0,0.02,0.9,0.0,0.18,0.42,0.1
6.853384099988034,0,0,0,0,1,64,8725837,3.2245447635650635,0.8953332901000977,1.5224758386611938,-1.3267769813537598,1.174231767654419,0.0006343508721329272,-0.028213415294885635,26.400000000000002,0.01,0.0,0.9500000000000001,0.0,0.04,0.29,0.19
6.8787328999897,0,0,0,0,1,64,8725862,3.2189481258392334,0.8669546246528625,1.519408106803894,-1.2888230085372925,0.8709337115287781,-0.0015151791740208864,-0.004581751301884651,26.42,0.0,0.0,0.92,0.0,0.0,0.19,0.4
6.914453900011722,0,0,0,0,1,64,8725898,3.2043604850769043,0.8378090858459473,1.5076475143432617,-1.1462229490280151,0.4993234872817993,-0.003785839071497321,0.001094491221010685,26.42,0.0,0.0,0.92,0.0,0.0,0.11,0.56
6.939707899990026,0,0,0,0,1,64,8725923,3.1922218799591064,0.8206796646118164,1.4946085214614868,-1.0331284999847412,0.26670628786087036,-0.0009374985238537192,-0.0021715350449085236,26.42,0.0,0.0,0.89,0.0,0.0,0.05,0.56
6.977292199997464,0,0,0,0,1,64,8725961,3.175426959991455,0.7892330288887024,1.474666953086853,-0.9554252624511719,0.0022597117349505424,0.004650351591408253,0.002492898143827915,26.42,0.0,0.1,0.8,0.02,0.0,0.0,0.34
7.008305900002597,0,0,0,0,1,64,8725992,3.169766426086426,0.7516505122184753,1.4682754278182983,-1.0124924182891846,-0.06724756211042404,-0.004220766481012106,6.507383659482002e-06,26.42,0.03,0.07,0.87,0.0,0.0,0.0,0.0
7.038532500009751,0,0,0,0,1,64,8726022,3.1750547885894775,0.7058868408203125,1.4698091745376587,-1.143105149269104,-0.036440666764974594,-0.004298074636608362,0.011752905324101448,26.42,0.0,0.0,0.99,0.0,0.0,0.1,0.0
7.069923400005791,0,0,0,0,1,64,8726053,3.1910924911499023,0.656032383441925,1.4726215600967407,-1.2759101390838623,0.003707250813022256,0.0033302188385277987,-0.023954220116138458,26.42,0.0,0.0,1.12,0.0,0.01,0.27,0.0
7.100325600011274,0,0,0,0,1,64,8726084,3.205608367919922,0.6146147847175598,1.4708318710327148,-1.3070695400238037,-0.008135386742651463,-0.0023953747004270554,-0.04375769942998886,26.42,0.0,0.0,1.44,0.0,0.12,0.37,0.0
7.1325118000095244,0,0,0,0,1,64,8726116,3.2091095447540283,0.5898154377937317,1.4654630422592163,-1.1740615367889404,-0.04212190955877304,0.0021169038955122232,-0.019540954381227493,26.400000000000002,0.11,0.03,1.16,0.0,0.12,0.33,0.0
7.156798000010895,0,0,0,0,1,64,8726140,3.2118279933929443,0.5887928009033203,1.4514013528823853,-0.9391152262687683,-0.15069375932216644,0.004886579234153032,-0.01650336943566799,26.42,0.0,0.11,0.9500000000000001,0.02,0.0,0.24,0.0
7.195638400007738,0,0,0,0,1,64,8726179,3.227499485015869,0.6023430824279785,1.4173980951309204,-0.511477530002594,-0.3860548436641693,0.0023511501494795084,0.0001416361192241311,26.42,0.0,0.14,0.98,0.23,0.24,0.0,0.0
7.226318400003947,0,0,0,0,1,64,8726210,3.249197483062744,0.6391585469245911,1.3782819509506226,-0.07089043408632278,-0.6121095418930054,0.001619471237063408,0.0003506075590848923,26.400000000000002,0.14,0.1,1.03,0.0,0.27,0.0,0.0
7.257447699987097,0,0,0,0,1,64,8726241,3.2646076679229736,0.7097217440605164,1.3245922327041626,0.5572835803031921,-0.9131948947906494,-0.003242787439376116,-0.002295340411365032,26.42,0.0,0.21,0.98,0.0,0.24,0.0,0.0
7.288788100006059,0,0,0,0,1,64,8726272,3.2736523151397705,0.7997152209281921,1.268090844154358,1.2044572830200195,-1.1760298013687134,-0.002462971955537796,0.0010879994370043278,26.42,0.0,0.12,1.08,0.0,0.18,0.0,0.0
7.319811800000025,0,0,0,0,1,64,8726303,3.277029037475586,0.8950777053833008,1.2246280908584595,1.7236746549606323,-1.2564605474472046,-0.0007330561056733131,-0.010717607103288174,26.400000000000002,0.0,0.1,1.12,0.0,0.03,0.0,0.0
7.351271199993789,0,0,0,0,1,64,8726335,3.2756171226501465,0.9940195083618164,1.1911360025405884,2.1120753288269043,-1.1999093294143677,7.703422306803986e-05,-0.001338255824521184,26.42,0.03,0.1,1.09,0.06,0.0,0.0,0.08
7.375834600010421,0,0,0,0,1,64,8726359,3.2712180614471436,1.0699515342712402,1.1678708791732788,2.339716672897339,-1.1393553018569946,0.005018749739974737,0.00010142172686755657,26.44,0.0,0.08,1.09,0.05,0.0,0.0,0.14
7.411736200010637,0,0,0,0,1,64,8726395,3.263251781463623,1.1796311140060425,1.126708984375,2.5687241554260254,-1.1304877996444702,4.029192496091127e-06,-0.0029529989697039127,26.42,0.0,0.09,0.96,0.0,0.0,0.0,0.17
7.436865600000601,0,0,0,0,1,64,8726420,3.2586872577667236,1.2481489181518555,1.094495415687561,2.6144933700561523,-1.1618645191192627,-0.00365767371840775,-0.00011813845776487142,26.42,0.0,0.06,0.89,0.0,0.0,0.0,0.12
7.472755800001323,0,0,0,0,1,64,8726456,3.254310369491577,1.3297055959701538,1.0433626174926758,2.5107614994049072,-1.2379865646362305,-0.00783977098762989,0.000297693011816591,26.42,0.12,0.07,0.87,0.0,0.0,0.0,0.03
7.497941800014814,0,0,0,0,1,64,8726481,3.2529923915863037,1.3757249116897583,1.0027122497558594,2.35793399810791,-1.3215320110321045,-0.0007708851480856538,0.0033138813450932503,26.42,0.0,0.04,0.85,0.0,0.0,0.0,0.03
7.534248300013132,0,0,0,0,1,64,8726518,3.25058650970459,1.4260907173156738,0.9382848739624023,2.0450656414031982,-1.4550349712371826,-0.005527116358280182,0.012140276841819286,26.42,0.03,0.03,0.86,0.0,0.0,0.0,0.04
7.565829600003781,0,0,0,0,1,64,8726549,3.248610496520996,1.4521684646606445,0.8884305953979492,1.719452142715454,-1.5064224004745483,0.00347616127692163,0.002191816922277212,26.400000000000002,0.09,0.0,0.9,0.0,0.0,0.0,0.12
7.5962441000156105,0,0,0,0,1,64,8726580,3.244004726409912,1.4616279602050781,0.8482913970947266,1.3374382257461548,-1.4581347703933716,0.002945761661976576,0.0035514249466359615,26.400000000000002,0.03,0.0,0.92,0.0,0.0,0.0,0.25
7.627118600008544,0,0,0,0,1,64,8726611,3.235778331756592,1.4621391296386719,0.8160778880119324,0.9651668071746826,-1.344889521598816,-0.0008165736799128354,0.003115786937996745,26.42,0.0,0.0,0.9400000000000001,0.03,0.02,0.0,0.5
7.658812900015619,0,0,0,0,1,64,8726642,3.220093011856079,1.4608608484268188,0.7920455932617188,0.6858094334602356,-1.191184639930725,0.0017096026567742229,0.0005561462603509426,26.42,0.06,0.0,0.89,0.09,0.17,0.0,0.65
7.689881400001468,0,0,0,0,1,64,8726673,3.2030951976776123,1.4524240493774414,0.775427520275116,0.42909324169158936,-1.010558843612671,-0.0022288954351097345,0.002445806283503771,26.42,0.0,0.0,0.92,0.07,0.28,0.0,0.56
7.720405000000028,0,0,0,0,1,64,8726704,3.190725564956665,1.4393850564956665,0.7603432536125183,0.1913640946149826,-0.857831597328186,0.0007087458507157862,0.0018885971512645483,26.42,0.0,0.0,0.91,0.0,0.22,0.0,0.33
7.751119699998526,0,0,0,0,1,64,8726735,3.1860294342041016,1.429925560951233,0.738867461681366,0.04525594785809517,-0.7984285354614258,-0.004013387486338615,-0.0032155239023268223,26.400000000000002,0.01,0.0,1.0,0.0,0.09,0.0,0.1
7.7818024000152946,0,0,0,0,1,64,8726765,3.1886136531829834,1.4253238439559937,0.7125342488288879,-0.009079664014279842,-0.8186219334602356,0.0038853147998452187,-0.0008691214025020599,26.42,0.0,0.0,1.07,0.01,0.0,0.0,0.0
7.812521299987566,0,0,0,0,1,64,8726796,3.195298433303833,1.4214887619018555,0.6874790191650391,-0.04042850807309151,-0.8251692056655884,-0.0036152470856904984,-9.077318827621639e-05,26.400000000000002,0.0,0.0,1.1400000000000001,0.07,0.04,0.0,0.0
7.845052199991187,0,0,0,0,1,64,8726828,3.199925184249878,1.4110065698623657,0.6736733317375183,-0.10736186802387238,-0.7261369824409485,-0.0036901189014315605,0.0007963720709085464,26.400000000000002,0.14,0.01,1.27,0.0,0.0,0.0,0.0
7.868927300005453,0,0,0,0,1,64,8726852,3.201613664627075,1.3956667184829712,0.6731621623039246,-0.21712550520896912,-0.5760623216629028,-0.0013947782572358847,0.019132129848003387,26.44,0.0,0.11,0.98,0.0,0.0,0.0,0.0
7.907061500009149,0,0,0,0,1,64,8726891,3.2175393104553223,1.3606408834457397,0.6838998794555664,-0.4398658871650696,-0.2993921637535095,-0.0013443350326269865,0.013090433552861214,26.42,0.08,0.25,0.98,0.0,0.0,0.0,0.0
7.938208700012183,0,0,0,0,1,64,8726922,3.2369048595428467,1.3225469589233398,0.7181587219238281,-0.6447110772132874,0.061983898282051086,-0.0011754125589504838,0.0018996488070115447,26.42,0.0,0.21,1.07,0.0,0.0,0.17,0.0
7.970271300000604,0,0,0,0,1,64,8726954,3.2563161849975586,1.2752491235733032,0.7884661555290222,-0.8808229565620422,0.6405309438705444,0.0011926105944439769,0.0010423405328765512,26.42,0.01,0.14,1.0,0.04,0.0,0.14,0.0
7.994989500002703,0,0,0,0,1,64,8726978,3.265856981277466,1.239712119102478,0.8608188629150391,-1.017970323562622,1.1500067710876465,0.0014797147596254945,-0.009307843632996082,26.42,0.0,0.09,1.12,0.06,0.0,0.1,0.0
8.031803599995328,0,0,0,0,1,64,8727015,3.2670161724090576,1.2000842094421387,0.9924857020378113,-1.0522326231002808,1.9175242185592651,0.006033467594534159,-0.0018801410915330052,26.400000000000002,0.0,0.12,1.08,0.0,0.01,0.03,0.06
8.06355240000994,0,0,0,0,1,64,8727047,3.2597098350524902,1.1796311140060425,1.1106020212173462,-0.9388905167579651,2.4316442012786865,0.006479600910097361,-0.0016009233659133315,26.44,0.0,0.12,1.1400000000000001,0.0,0.13,0.08,0.16
8.088094300008379,0,0,0,0,1,64,8727071,3.2529618740081787,1.16710364818573,1.195482611656189,-0.8393321633338928,2.6816020011901855,0.006247896701097488,-0.0037166050169616938,26.42,0.0,0.04,1.05,0.0,0.17,0.19,0.19
8.12587310001254,0,0,0,0,1,64,8727109,3.242436408996582,1.1410259008407593,1.326382040977478,-0.7788749933242798,2.936880350112915,0.00046272820327430964,-0.004116811789572239,26.44,0.0,0.05,0.93,0.0,0.28,0.27,0.2
8.157648099993821,0,0,0,0,1,64,8727141,3.2349846363067627,1.1118803024291992,1.414841651916504,-0.8112733364105225,2.9024364948272705,-0.0010669758776202798,0.0017773150466382504,26.42,0.11,0.07,0.92,0.0,0.32,0.28,0.21
8.18218900001375,0,0,0,0,1,64,8727166,3.2285072803497314,1.0824790000915527,1.4708318710327148,-0.885972797870636,2.7560856342315674,-0.005991421639919281,-0.00364634464494884,26.42,0.0,0.08,0.92,0.0,0.29,0.28,0.19
8.218465000012657,0,0,0,0,1,64,8727202,3.2218971252441406,1.0295566320419312,1.5301460027694702,-1.0604501962661743,2.4165568351745605,0.009864102117717266,0.001240131794475019,26.400000000000002,0.0,0.02,0.92,0.0,0.22,0.28,0.09
8.239019100001315,0,0,0,0,1,64,8727222,3.2196273803710938,0.9960648417472839,1.5511102676391602,-1.1717846393585205,2.1691806316375732,0.009049906395375729,-0.001696317340247333,26.42,0.0,0.05,0.89,0.0,0.17,0.25,0.08
8.265386599989142,0,0,0,0,1,64,8727249,3.2174224853515625,0.9515792727470398,1.5646604299545288,-1.2928361892700195,1.7733837366104126,0.0021212834399193525,0.0036366863641887903,26.400000000000002,0.0,0.01,0.87,0.0,0.1,0.2,0.05
8.29632130000391,0,0,0,0,1,64,8727280,3.2154486179351807,0.9050485491752625,1.563126564025879,-1.359379529953003,1.2703224420547485,0.003135268110781908,0.01381787657737732,26.400000000000002,0.0,0.0,0.9400000000000001,0.0,0.05,0.17,0.21
8.32766830001492,0,0,0,0,1,64,8727311,3.208115577697754,0.8669546246528625,1.552899956703186,-1.3308696746826172,0.8298864960670471,0.0037370582576841116,0.008336005732417107,26.400000000000002,0.11,0.0,0.92,0.0,0.0,0.16,0.42
8.359436600003392,0,0,0,0,1,64,8727343,3.1952595710754395,0.8390873074531555,1.5301460027694702,-1.2049410343170166,0.4004879891872406,0.006279504392296076,0.0034083311911672354,26.42,0.04,0.0,0.9,0.0,0.0,0.19,0.55
8.384037400013767,0,0,0,0,1,64,8727367,3.183717727661133,0.8214465975761414,1.5068804025650024,-1.0976691246032715,0.09783826023340225,0.008984243497252464,0.003261344274505973,26.400000000000002,0.0,0.0,0.88,0.0,0.0,0.19,0.51
8.420850199996494,0,0,0,0,1,64,8727404,3.169067144393921,0.7851424217224121,1.4756895303726196,-1.0430299043655396,-0.21536730229854584,0.008106417022645473,0.011762362904846668,26.42,0.0,0.13,0.84,0.0,0.0,0.15,0.22
8.451971200003754,0,0,0,0,1,64,8727435,3.1666343212127686,0.7421908378601074,1.4657186269760132,-1.1271724700927734,-0.2611577808856964,0.00793684646487236,0.009999181143939495,26.400000000000002,0.0,0.05,0.9500000000000001,0.0,0.0,0.14,0.0
8.483741000003647,0,0,0,0,1,64,8727467,3.174144744873047,0.6918252110481262,1.466485619544983,-1.2552982568740845,-0.17705972492694855,0.004147291649132967,0.007858669385313988,26.42,0.08,0.0,1.04,0.0,0.0,0.26,0.0
8.50803110000561,0,0,0,0,1,64,8727491,3.1844100952148438,0.6573107838630676,1.4654630422592163,-1.3034905195236206,-0.13848164677619934,0.006234075408428907,0.011716230772435665,26.42,0.0,0.0,1.1400000000000001,0.0,0.0,0.37,0.0
8.54556890000822,0,0,0,0,1,64,8727529,3.1942644119262695,0.6189611554145813,1.4636732339859009,-1.2226793766021729,-0.10314032435417175,0.004290320910513401,0.007228851784020662,26.42,0.11,0.0,1.28,0.01,0.21,0.39,0.01
8.576546700001927,0,0,0,0,1,64,8727560,3.1963813304901123,0.6105243563652039,1.449867606163025,-0.9810268878936768,-0.18018484115600586,-0.007677510380744934,0.008416091091930866,26.42,0.11,0.1,1.0,0.0,0.12,0.31,0.0
8.6089243000024,0,0,0,0,1,64,8727592,3.2081069946289062,0.6181942820549011,1.4225116968154907,-0.63533616065979,-0.3644717335700989,0.0007454502629116178,0.006828152108937502,26.42,0.0,0.17,0.87,0.07,0.05,0.11,0.0
8.633039000007557,0,0,0,0,1,64,8727616,3.226083755493164,0.6330226063728333,1.3989906311035156,-0.36803796887397766,-0.5011031627655029,-2.461945405229926e-05,0.003266145009547472,26.400000000000002,0.12,0.13,0.93,0.15,0.19,0.0,0.0
8.67119319998892,0,0,0,0,1,64,8727655,3.255514621734619,0.6954047083854675,1.3483692407608032,0.2578662633895874,-0.7547609210014343,0.003658981528133154,0.0066715385764837265,26.400000000000002,0.0,0.19,0.91,0.0,0.23,0.0,0.0
8.702591000008397,0,0,0,0,1,64,8727686,3.2685859203338623,0.7802847027778625,1.2977476119995117,0.9256410598754883,-0.9963685274124146,-0.0025704572908580303,-0.0035964353010058403,26.400000000000002,0.0,0.2,1.21,0.0,0.25,0.0,0.0
8.73395910000545,0,0,0,0,1,64,8727717,3.27276873588562,0.8794822692871094,1.2560745477676392,1.5608354806900024,-1.111057996749878,-0.0031516612507402897,0.003482402767986059,26.42,0.0,0.07,1.27,0.0,0.18,0.0,0.0
8.764479200006463,0,0,0,0,1,64,8727748,3.2710862159729004,0.9835371971130371,1.231530785560608,2.060612201690674,-1.031219244003296,-0.005191057454794645,0.001412414712831378,26.42,0.0,0.1,1.05,0.0,0.0,0.0,0.11
8.795976399997016,0,0,0,0,1,64,8727779,3.264918327331543,1.0888705253601074,1.2156797647476196,2.4277267456054688,-0.8865277171134949,-0.005392540246248245,0.008451495319604874,26.400000000000002,0.08,0.04,1.05,0.08,0.0,0.0,0.25
8.827597499999683,0,0,0,0,1,64,8727811,3.254296064376831,1.1924142837524414,1.1921586990356445,2.6620728969573975,-0.8247222900390625,-0.008138145320117474,-0.0027138919103890657,26.42,0.01,0.07,1.04,0.0,0.0,0.0,0.31
8.852247800008627,0,0,0,0,1,64,8727836,3.246154308319092,1.2652783393859863,1.1648029088974,2.7282989025115967,-0.8725994229316711,-0.014854885637760162,-0.0017714197747409344,26.44,0.01,0.0,0.9,0.0,0.0,0.0,0.23
8.8897311000037,0,0,0,0,1,64,8727873,3.238862991333008,1.3504142761230469,1.1134144067764282,2.605686902999878,-1.0315148830413818,-0.007416508160531521,0.00244140368886292,26.44,0.0,0.11,0.87,0.0,0.0,0.0,0.02
8.921390300005442,0,0,0,0,1,64,8727905,3.2381367683410645,1.4012913703918457,1.062281608581543,2.326862096786499,-1.190017819404602,-0.002827188465744257,-0.003163643181324005,26.42,0.0,0.06,0.87,0.0,0.0,0.0,0.0
8.946178799989866,0,0,0,0,1,64,8727930,3.2397451400756836,1.4294143915176392,1.0195859670639038,2.05385422706604,-1.3083322048187256,-0.005223909858614206,-0.0008710812544450164,26.42,0.0,0.03,0.87,0.0,0.0,0.0,0.0
8.982363699993584,0,0,0,0,1,64,8727966,3.240968704223633,1.4539580345153809,0.9597606658935547,1.6246700286865234,-1.424168586730957,-0.0035463327076286077,-0.0014551789499819279,26.44,0.0,0.03,0.92,0.0,0.0,0.0,0.01
9.003225699998438,0,0,0,0,1,64,8727987,3.239788293838501,1.460349678993225,0.928314208984375,1.370934247970581,-1.444450855255127,-0.0012107500806450844,-0.0030622887425124645,26.42,0.0,0.0,0.9500000000000001,0.0,0.0,0.0,0.1
9.029634500009706,0,0,0,0,1,64,8728013,3.236279010772705,1.4608608484268188,0.8961006999015808,1.05409574508667,-1.4059419631958008,0.0027096825651824474,-0.0029039834626019,26.400000000000002,0.0,0.0,0.96,0.02,0.07,0.0,0.3
9.059721300000092,0,0,0,0,1,64,8728043,3.225099802017212,1.460349678993225,0.8679774403572083,0.7566481232643127,-1.2842739820480347,-0.0017147337784990668,0.0022493540309369564,26.400000000000002,0.01,0.0,0.9400000000000001,0.07,0.16,0.0,0.67
9.091655199998058,0,0,0,0,1,64,8728075,3.2038686275482178,1.4600939750671387,0.8459904789924622,0.5370768904685974,-1.116189956665039,0.005091105122119188,-0.0005198509898036718,26.42,0.01,0.0,0.93,0.03,0.23,0.0,0.81
9.11619589998736,0,0,0,0,1,64,8728100,3.185619354248047,1.4537023305892944,0.8301394581794739,0.36706408858299255,-0.9999443888664246,0.005237056873738766,-0.006099021062254906,26.42,0.0,0.07,0.84,0.0,0.23,0.0,0.66
9.15436350001255,0,0,0,0,1,64,8728138,3.168854236602783,1.4378513097763062,0.800482451915741,0.10756314545869827,-0.916939377784729,-0.0031558808404952288,0.0006492137908935547,26.400000000000002,0.0,0.07,0.85,0.0,0.15,0.0,0.21
9.185508199996548,0,0,0,0,1,64,8728169,3.167538642883301,1.432737946510315,0.7685244679450989,0.020890582352876663,-0.9431073665618896,-0.003454644698649645,-0.0050476109609007835,26.400000000000002,0.0,0.0,0.96,0.0,0.0,0.0,0.0
9.21745130000636,0,0,0,0,1,64,8728201,3.176100254058838,1.4317153692245483,0.7340097427368164,0.005856270436197519,-0.9847906231880188,0.002448698505759239,0.00033782306127250195,26.42,0.0,0.0,1.1,0.02,0.0,0.0,0.0
9.242278199992143,0,0,0,0,1,64,8728226,3.1834495067596436,1.4317153692245483,0.7120227813720703,0.005794100929051638,-0.9698373079299927,0.004394940100610256,-0.0016805442282930017,26.42,0.12,0.0,1.21,0.0,0.0,0.0,0.0
9.279848800011678,0,0,0,0,1,64,8728263,3.185864210128784,1.4248123168945312,0.6951491236686707,-0.0419221967458725,-0.818757176399231,-0.008241918869316578,-0.00660313805565238,26.400000000000002,0.08,0.04,1.2,0.0,0.0,0.0,0.04
9.310403200011933,0,0,0,0,1,64,8728294,3.1886751651763916,1.407171607017517,0.6956602931022644,-0.18177036941051483,-0.588059663772583,-1.811026595532894e-05,-0.03408918157219887,26.42,0.06,0.15,0.9400000000000001,0.0,0.02,0.0,0.0
9.341734199988423,0,0,0,0,1,64,8728325,3.1996688842773438,1.3836504220962524,0.703841507434845,-0.3366086483001709,-0.35809561610221863,0.0013816205319017172,-0.014881636947393417,26.44,0.08,0.32,1.16,0.0,0.0,0.0,0.0
9.372458600002574,0,0,0,0,1,64,8728356,3.2190661430358887,1.3499029874801636,0.7370780110359192,-0.5319809317588806,0.004341200925409794,-0.00253108749166131,-0.002605640096589923,26.42,0.12,0.14,0.89,0.0,0.0,0.09,0.0
9.403382699994836,0,0,0,0,1,64,8728387,3.2360591888427734,1.3026052713394165,0.8076410293579102,-0.7955282330513,0.6031123995780945,0.0012026779586449265,-0.0065649449825286865,26.42,0.09,0.06,0.97,0.05,0.0,0.05,0.0
9.43445430000429,0,0,0,0,1,64,8728418,3.2440052032470703,1.2532621622085571,0.9060713648796082,-1.0273188352584839,1.3008960485458374,-0.0015046054031699896,0.001403155503794551,26.42,0.06,0.04,1.12,0.05,0.0,0.01,0.0
9.46542860000045,0,0,0,0,1,64,8728449,3.2424163818359375,1.2184919118881226,1.0137056112289429,-1.074266791343689,1.9150445461273193,-0.005688514094799757,-0.0001546560088172555,26.42,0.0,0.14,1.04,0.0,0.0,0.01,0.07
9.496401999989757,0,0,0,0,1,64,8728480,3.2361907958984375,1.1982946395874023,1.1146926879882812,-0.9624732136726379,2.2996184825897217,-0.0019060074118897319,0.004568646661937237,26.42,0.0,0.16,1.02,0.0,0.13,0.14,0.12
9.527368000010028,0,0,0,0,1,64,8728511,3.229604482650757,1.1796311140060425,1.209288239479065,-0.8498684167861938,2.505838632583618,0.0005827852291986346,-0.002252985257655382,26.42,0.0,0.1,1.03,0.0,0.23,0.25,0.1
9.558376100001624,0,0,0,0,1,64,8728542,3.223942279815674,1.150229811668396,1.303116798400879,-0.8591465950012207,2.6449050903320312,-0.003310940694063902,-0.005058383569121361,26.42,0.0,0.12,0.96,0.0,0.32,0.22,0.06
9.589852400007658,0,0,0,0,1,64,8728573,3.220547914505005,1.108301043510437,1.3849290609359741,-0.9860786199569702,2.6558268070220947,-0.004728992469608784,0.0013567786663770676,26.400000000000002,0.01,0.11,0.93,0.0,0.27,0.15,0.01
9.621002700005192,0,0,0,0,1,64,8728604,3.2199161052703857,1.0587023496627808,1.4519128799438477,-1.155500054359436,2.5204553604125977,0.0029899482615292072,-0.005760931875556707,26.42,0.0,0.05,0.96,0.0,0.17,0.15,0.0
9.653111999999965,0,0,0,0,1,64,8728636,3.2193946838378906,1.0024563074111938,1.5045795440673828,-1.3237298727035522,2.2792763710021973,0.0027361169923096895,-0.005861300975084305,26.44,0.09,0.07,0.92,0.0,0.08,0.19,0.0
9.67746909998823,0,0,0,0,1,64,8728661,3.219066619873047,0.9595049023628235,1.5316797494888306,-1.415601372718811,2.0165598392486572,0.0029785335063934326,-0.0125349760055542,26.42,0.09,0.03,0.91,0.0,0.08,0.21,0.0
9.714202100003604,0,0,0,0,1,64,8728698,3.2172553539276123,0.9019805788993835,1.547531008720398,-1.464186191558838,1.5164965391159058,0.0012074224650859833,0.009889382869005203,26.42,0.11,0.0,0.9400000000000001,0.0,0.09,0.24,0.11
9.739697500015609,0,0,0,0,1,64,8728723,3.2141191959381104,0.8672103881835938,1.546252727508545,-1.4492744207382202,1.1559072732925415,-0.004470654763281345,0.0168954785913229,26.400000000000002,0.08,0.0,0.98,0.0,0.07,0.25,0.29
9.776865299994824,0,0,0,0,1,64,8728760,3.200436592102051,0.8237476348876953,1.5378156900405884,-1.3664354085922241,0.7121923565864563,0.002145894803106785,0.004643547814339399,26.42,0.0,0.0,0.89,0.0,0.0,0.27,0.59
9.80160390000674,0,0,0,0,1,64,8728785,3.1865780353546143,0.7997152209281921,1.5229873657226562,-1.2733783721923828,0.42304760217666626,0.0022543128579854965,-0.00800426583737135,26.44,0.11,0.0,0.85,0.0,0.0,0.28,0.65
9.838181300001452,0,0,0,0,1,64,8728822,3.1661734580993652,0.7672459483146667,1.4910293817520142,-1.1407802104949951,0.010872052982449532,0.0069563421420753,0.0017531648045405746,26.42,0.0,0.08,0.81,0.0,0.0,0.28,0.44
9.86359180000727,0,0,0,0,1,64,8728847,3.1575734615325928,0.741168200969696,1.4726215600967407,-1.1066064834594727,-0.1728658378124237,0.006978122983127832,-0.0031566096004098654,26.44,0.12,0.14,0.8,0.03,0.0,0.23,0.16
9.900174300011713,0,0,0,0,1,64,8728884,3.160383939743042,0.6890130043029785,1.466230034828186,-1.1925352811813354,-0.19216586649417877,0.0019254731014370918,-0.004420917481184006,26.42,0.14,0.0,1.01,0.0,0.0,0.29,0.0
9.925513499998488,0,0,0,0,1,64,8728909,3.1710970401763916,0.6514304280281067,1.4690423011779785,-1.2690504789352417,-0.1124405562877655,-0.008009643293917179,0.01737229712307453,26.42,0.03,0.0,1.09,0.0,0.0,0.33,0.0
9.963213200011523,0,0,0,0,1,64,8728947,3.1887013912200928,0.6105243563652039,1.4652074575424194,-1.2232789993286133,-0.09457311779260635,-0.003584005869925022,0.030852003023028374,26.400000000000002,0.0,0.0,1.26,0.0,0.23,0.39,0.0
9.994024599989643,0,0,0,0,1,64,8728977,3.197307586669922,0.6025988459587097,1.4547252655029297,-0.9896941184997559,-0.15358921885490417,-0.008391219191253185,0.014347905293107033,26.42,0.11,0.12,1.09,0.0,0.29,0.34,0.0
10.025248799996916,0,0,0,0,1,64,8729009,3.209987163543701,0.6107800602912903,1.4352947473526,-0.6380243301391602,-0.2765525281429291,-0.0034400424920022488,-0.004906696733087301,26.42,0.01,0.14,1.09,0.1,0.36,0.09,0.0
10.050548600003822,0,0,0,0,1,64,8729034,3.227766513824463,0.6299546360969543,1.414841651916504,-0.33636850118637085,-0.39221280813217163,-0.002185342600569129,0.009158681146800518,26.42,0.0,0.11,0.9500000000000001,0.0,0.35000000000000003,0.0,0.0
10.08713520001038,0,0,0,0,1,64,8729071,3.248666763305664,0.701540470123291,1.3639646768569946,0.3596888482570648,-0.692000687122345,-0.0010566012933850288,0.0072222123853862286,26.42,0.0,0.25,0.9500000000000001,0.0,0.14,0.0,0.0
10.112661999999546,0,0,0,0,1,64,8729096,3.2579030990600586,0.7761940956115723,1.318200707435608,0.948020875453949,-0.948183536529541,0.004117200616747141,0.0047320034354925156,26.400000000000002,0.0,0.14,1.1300000000000001,0.0,0.19,0.0,0.0
10.148482499993406,0,0,0,0,1,64,8729132,3.2627756595611572,0.8968672752380371,1.2614434957504272,1.7144371271133423,-1.1664248704910278,-0.005596051458269358,0.0020813553128391504,26.39,0.01,0.09,1.1400000000000001,0.0,0.16,0.01,0.0
10.169693200004986,0,0,0,0,1,64,8729153,3.2622334957122803,0.9679417610168457,1.2392009496688843,2.0497782230377197,-1.158498764038086,-0.005950585473328829,-0.00808604434132576,26.42,0.01,0.08,1.1,0.03,0.1,0.0,0.05
10.195764400006738,0,0,0,0,1,64,8729179,3.2581679821014404,1.056401252746582,1.2197704315185547,2.365255832672119,-1.0665792226791382,-0.00021068839123472571,-0.0018478923011571169,26.42,0.11,0.04,1.08,0.03,0.0,0.0,0.13
10.22759289998794,0,0,0,0,1,64,8729211,3.249868631362915,1.1622461080551147,1.1970163583755493,2.630352735519409,-0.9533209800720215,0.0009503979235887527,0.001104493741877377,26.42,0.12,0.07,1.07,0.0,0.0,0.0,0.25
10.257910999993328,0,0,0,0,1,64,8729241,3.240978479385376,1.2522395849227905,1.169660210609436,2.7449419498443604,-0.9314414858818054,-0.0060250661335885525,0.0005666502984240651,26.400000000000002,0.08,0.1,0.85,0.02,0.0,0.0,0.2
10.288478000002215,0,0,0,0,1,64,8729272,3.2353625297546387,1.3281716108322144,1.1364240646362305,2.6737523078918457,-0.964562177658081,-0.004565304610878229,-0.00275033013895154,26.42,0.0,0.13,0.9,0.0,0.0,0.0,0.02
10.319733899988933,0,0,0,0,1,64,8729303,3.234781503677368,1.3831392526626587,1.0993528366088867,2.4352457523345947,-1.0207338333129883,-0.0022577536292374134,-0.002598172752186656,26.400000000000002,0.12,0.02,0.93,0.0,0.0,0.0,0.0
10.351273400010541,0,0,0,0,1,64,8729335,3.2353763580322266,1.4243011474609375,1.0546118021011353,2.110644578933716,-1.121348261833191,-0.004001311957836151,0.0019551280420273542,26.400000000000002,0.0,0.02,0.92,0.0,0.0,0.0,0.0
10.375761800009059,0,0,0,0,1,64,8729359,3.235365629196167,1.4483333826065063,1.016262412071228,1.860534429550171,-1.224197268486023,-0.010285280644893646,0.0032958057709038258,26.400000000000002,0.06,0.03,0.91,0.0,0.0,0.0,0.0
10.412969600001816,0,0,0,0,1,64,8729396,3.2331087589263916,1.471854567527771,0.9556700587272644,1.473017692565918,-1.3588775396347046,-0.009290236979722977,0.0018650776473805308,26.400000000000002,0.0,0.03,0.93,0.05,0.0,0.02,0.09
10.443997800000943,0,0,0,0,1,64,8729427,3.229632616043091,1.4779905080795288,0.9127187728881836,1.1273488998413086,-1.3767489194869995,0.006393063347786665,0.011167766526341438,26.400000000000002,0.11,0.0,0.96,0.08,0.0,0.07,0.21
10.474938700004714,0,0,0,0,1,64,8729458,3.223306179046631,1.4777346849441528,0.879993736743927,0.8104538917541504,-1.2937679290771484,0.017039336264133453,0.005130197387188673,26.42,0.09,0.0,0.9500000000000001,0.04,0.0,0.06,0.45
10.506102200015448,0,0,0,0,1,64,8729489,3.209624767303467,1.47492253780365,0.8536602854728699,0.5650851726531982,-1.1697884798049927,0.019125062972307205,0.0033400962129235268,26.44,0.04,0.0,0.92,0.0,0.03,0.0,0.64
10.537343700008933,0,0,0,0,1,64,8729521,3.1923632621765137,1.4565147161483765,0.8296279907226562,0.2552567422389984,-1.0475660562515259,0.004986844025552273,0.004947424866259098,26.42,0.0,0.04,0.76,0.1,0.14,0.0,0.49
10.562028499989538,0,0,0,0,1,64,8729545,3.183668375015259,1.4363170862197876,0.8104534149169922,0.012133104726672173,-0.9840855598449707,0.0006792689091525972,0.0034181566443294287,26.400000000000002,0.04,0.1,0.8300000000000001,0.07,0.17,0.0,0.2
10.593378999998095,0,0,0,0,1,64,8729577,3.182230234146118,1.4163755178451538,0.7777283787727356,-0.1830693781375885,-0.982677161693573,-0.002284466056153178,0.006467081606388092,26.42,0.0,0.0,0.89,0.0,0.07,0.0,0.0
10.621426400000928,0,0,0,0,1,64,8729605,3.188483476638794,1.4084497690200806,0.7439807057380676,-0.21719768643379211,-1.0387823581695557,0.002275637350976467,0.007371881976723671,26.400000000000002,0.01,0.0,0.99,0.0,0.06,0.0,0.0
10.648236900015036,0,0,0,0,1,64,8729632,3.196070432662964,1.4053817987442017,0.713812530040741,-0.19071218371391296,-1.0647128820419312,0.00479803467169404,0.005154133774340153,26.42,0.0,0.0,1.05,0.03,0.09,0.0,0.0
10.679729600000428,0,0,0,0,1,64,8729663,3.2024574279785156,1.3946441411972046,0.6923367381095886,-0.2204589545726776,-0.9778329133987427,-0.004998371005058289,-0.0006370987975969911,26.42,0.06,0.04,1.26,0.0,0.07,0.0,0.0
10.711213400005363,0,0,0,0,1,64,8729695,3.2102210521698,1.37112295627594,0.6910584568977356,-0.35750898718833923,-0.7272186279296875,-0.0028005326166749,0.0229257270693779,26.400000000000002,0.0,0.12,1.02,0.0,0.02,0.0,0.0
10.73588860000018,0,0,0,0,1,64,8729719,3.221156358718872,1.3506699800491333,0.6954047083854675,-0.4649984836578369,-0.5231767296791077,0.0005192445823922753,0.004622749052941799,26.400000000000002,0.01,0.28,1.26,0.0,0.0,0.0,0.0
10.773370200011414,0,0,0,0,1,64,8729757,3.243089199066162,1.3066959381103516,0.7337541580200195,-0.6773364543914795,-0.053852152079343796,0.008278346620500088,-0.0012327668955549598,26.400000000000002,0.0,0.16,1.03,0.0,0.0,0.14,0.0
10.804538800002774,0,0,0,0,1,64,8729788,3.2590482234954834,1.2540292739868164,0.813776969909668,-0.948356568813324,0.6365755796432495,0.010734480805695057,-0.004530476871877909,26.42,0.08,0.1,0.99,0.12,0.0,0.13,0.0
10.83656900000642,0,0,0,0,1,64,8729820,3.2684950828552246,1.200595498085022,0.9252462387084961,-1.1675660610198975,1.4410741329193115,0.0017950485926121473,-0.003020399482920766,26.400000000000002,0.08,0.0,1.05,0.07,0.07,0.02,0.0
10.861007300001802,0,0,0,0,1,64,8729844,3.268204927444458,1.173750877380371,1.013450026512146,-1.1788076162338257,1.948617696762085,0.005304199643433094,-0.007610730826854706,26.400000000000002,0.09,0.03,0.98,0.0,0.15,0.0,0.06
10.899976699991385,0,0,0,0,1,64,8729883,3.2595973014831543,1.1507411003112793,1.1407703161239624,-0.9863141775131226,2.405879259109497,-0.0031154947355389595,-0.006027957424521446,26.400000000000002,0.08,0.1,0.92,0.0,0.25,0.12,0.17
10.929518699995242,0,0,0,0,1,64,8729913,3.2538578510284424,1.1287540197372437,1.2361329793930054,-0.8990547060966492,2.6009209156036377,-0.0047409324906766415,-0.0021854613441973925,26.39,0.0,0.1,1.05,0.0,0.27,0.13,0.05
10.960082500008866,0,0,0,0,1,64,8729943,3.2507002353668213,1.0960291624069214,1.3304725885391235,-0.9366524815559387,2.7463619709014893,-0.001910421415232122,-0.005804608575999737,26.400000000000002,0.06,0.1,0.98,0.03,0.24,0.02,0.0
10.991710900008911,0,0,0,0,1,64,8729975,3.249178409576416,1.0569127798080444,1.4166313409805298,-1.0175163745880127,2.7418203353881836,-0.0004740675212815404,0.0038200414273887873,26.400000000000002,0.12,0.05,0.9400000000000001,0.0,0.17,0.01,0.0
11.016394600010244,0,0,0,0,1,64,8730000,3.24882435798645,1.0252103805541992,1.4736442565917969,-1.0759080648422241,2.638780117034912,0.004791843704879284,0.0012909496435895562,26.400000000000002,0.0,0.04,1.0,0.0,0.11,0.11,0.04
11.055598900013138,0,0,0,0,1,64,8730039,3.245488405227661,0.973310649394989,1.5396054983139038,-1.1577202081680298,2.3299975395202637,0.00016021724150050431,-0.004129802342504263,26.42,0.0,0.0,1.01,0.0,0.14,0.27,0.11
11.087825700000394,0,0,0,0,1,64,8730071,3.241079807281494,0.9280583262443542,1.5695180892944336,-1.2287453413009644,1.9485245943069458,0.0007532458985224366,-0.004876212682574987,26.400000000000002,0.0,0.0,0.96,0.0,0.19,0.33,0.11
11.112456800008658,0,0,0,0,1,64,8730096,3.2370896339416504,0.8943106532096863,1.5756540298461914,-1.2622183561325073,1.5704585313796997,0.005337064154446125,-0.010551241226494312,26.400000000000002,0.0,0.06,0.9400000000000001,0.0,0.14,0.33,0.13
11.15096200001426,0,0,0,0,1,64,8730134,3.2302303314208984,0.8498252034187317,1.5687509775161743,-1.2373991012573242,0.9927818775177002,0.00394412549212575,0.004079883918166161,26.400000000000002,0.03,0.0,0.96,0.0,0.0,0.25,0.34
11.182061700004851,0,0,0,0,1,64,8730165,3.21916127204895,0.8245145678520203,1.5549453496932983,-1.1263184547424316,0.5957035422325134,0.0008138642879202962,0.0049415831454098225,26.400000000000002,0.14,0.0,0.9500000000000001,0.0,0.0,0.17,0.52
11.213770300004398,0,0,0,0,1,64,8730197,3.203331232070923,0.8012492060661316,1.5344921350479126,-1.002693772315979,0.24549837410449982,0.002740977331995964,0.005070587154477835,26.400000000000002,0.16,0.0,0.92,0.0,0.0,0.12,0.61
11.23882309999317,0,0,0,0,1,64,8730222,3.1908206939697266,0.7777280807495117,1.5209420919418335,-0.9760491847991943,0.056551966816186905,0.0010709537891671062,-0.0062928516417741776,26.42,0.09,0.0,0.85,0.0,0.0,0.1,0.51
11.27671229999396,0,0,0,0,1,64,8730260,3.1779775619506836,0.7291520237922668,1.509437084197998,-1.0659043788909912,-0.06652606278657913,0.000924070249311626,0.004062826745212078,26.400000000000002,0.04,0.04,0.85,0.0,0.0,0.12,0.22
11.306629200000316,0,0,0,0,1,64,8730290,3.1760401725769043,0.6831328272819519,1.5063692331314087,-1.1878983974456787,-0.07607405632734299,6.65104016661644e-05,-0.008508129976689816,26.42,0.0,0.0,0.9,0.0,0.0,0.23,0.0
11.33732069999678,0,0,0,0,1,64,8730321,3.1810569763183594,0.6417152285575867,1.5017671585083008,-1.2448922395706177,-0.08636238425970078,-0.001163023174740374,-0.004857693333178759,26.42,0.0,0.0,1.09,0.0,0.02,0.38,0.0
11.369403399992734,0,0,0,0,1,64,8730353,3.186180353164673,0.6135921478271484,1.4889841079711914,-1.1522204875946045,-0.16358253359794617,0.0037520506884902716,-0.003993989899754524,26.400000000000002,0.0,0.0,1.25,0.0,0.15,0.42,0.0
11.394187600002624,0,0,0,0,1,64,8730378,3.1890430450439453,0.6056668162345886,1.4710875749588013,-0.9783130288124084,-0.2833278775215149,0.00430702418088913,-0.001964672701433301,26.42,0.0,0.03,1.12,0.02,0.24,0.36,0.0
11.432714800001122,0,0,0,0,1,64,8730416,3.2013111114501953,0.6056668162345886,1.4416862726211548,-0.6536287665367126,-0.4504964053630829,0.005489083006978035,-0.002001295331865549,26.400000000000002,0.11,0.19,1.01,0.14,0.17,0.08,0.0
11.463205800013384,0,0,0,0,1,64,8730447,3.223525047302246,0.6153818964958191,1.4232784509658813,-0.40108197927474976,-0.49179157614707947,0.007093215361237526,0.0008043049601837993,26.42,0.14,0.1,1.07,0.13,0.31,0.0,0.0
11.493933399993693,0,0,0,0,1,64,8730477,3.2429862022399902,0.6621683239936829,1.3969453573226929,0.08005902916193008,-0.5766606330871582,-0.002316157566383481,0.00024182244669646025,26.44,0.24,0.14,1.0,0.0,0.17,0.0,0.0
11.525083299988182,0,0,0,0,1,64,8730508,3.2511608600616455,0.7547184824943542,1.353226661682129,0.8525936007499695,-0.7925609350204468,-0.008618826046586037,-0.003049188293516636,26.42,0.0,0.09,1.18,0.0,0.14,0.0,0.0
11.556423100002576,0,0,0,0,1,64,8730540,3.2491657733917236,0.872067928314209,1.3092527389526367,1.6573140621185303,-0.9724254012107849,-0.010338104330003262,0.0044922661036252975,26.42,0.0,0.1,1.21,0.0,0.05,0.0,0.08
11.581173000013223,0,0,0,0,1,64,8730565,3.244666337966919,0.9625727534294128,1.2862430810928345,2.125025510787964,-0.9791606068611145,-0.003982293885201216,0.008595257066190243,26.400000000000002,0.11,0.08,1.1,0.0,0.0,0.0,0.14
11.620250300009502,0,0,0,0,1,64,8730604,3.235971450805664,1.097051739692688,1.2609323263168335,2.568342924118042,-0.8630449771881104,-0.012917825020849705,0.010402355343103409,26.400000000000002,0.0,0.14,0.96,0.02,0.0,0.0,0.2
11.653171999991173,0,0,0,0,1,64,8730637,3.227674722671509,1.2031521797180176,1.2348546981811523,2.7558441162109375,-0.8276563286781311,-0.004874187987297773,0.0004932456649839878,26.400000000000002,0.11,0.11,1.0,0.0,0.0,0.0,0.22
11.678370700014057,0,0,0,0,1,64,8730662,3.2220935821533203,1.2783170938491821,1.2054532766342163,2.813655138015747,-0.8929184079170227,-0.011419553309679031,-0.00048057539970614016,26.42,0.01,0.04,0.9400000000000001,0.01,0.0,0.0,0.21
11.710971199994674,0,0,0,0,1,64,8730695,3.2161967754364014,1.3637088537216187,1.1555989980697632,2.761806011199951,-1.063815712928772,-0.005440619774162769,-0.0004813321866095066,26.42,0.0,0.09,0.92,0.0,0.0,0.0,0.08
11.735465400008252,0,0,0,0,1,64,8730719,3.2140450477600098,1.4140745401382446,1.113669991493225,2.6214611530303955,-1.212011456489563,-0.0031529690604656935,0.002462862292304635,26.42,0.03,0.08,0.87,0.0,0.0,0.0,0.03
11.77094620000571,0,0,0,0,1,64,8730754,3.2134315967559814,1.4682750701904297,1.044385313987732,2.3000237941741943,-1.4385241270065308,0.00019387807697057724,0.008265258744359016,26.42,0.14,0.07,0.88,0.0,0.0,0.0,0.0
11.792406599997776,0,0,0,0,1,64,8730776,3.213479995727539,1.491029143333435,0.9981101155281067,2.0496866703033447,-1.5774085521697998,-5.436956416815519e-05,0.008839155547320843,26.400000000000002,0.0,0.07,0.88,0.0,0.0,0.04,0.0
11.818159099988407,0,0,0,0,1,64,8730802,3.214015007019043,1.5050907135009766,0.9456993937492371,1.7024636268615723,-1.6887562274932861,0.0044520460069179535,0.00011381739750504494,26.44,0.09,0.03,0.89,0.0,0.0,0.06,0.0
11.848955900000874,0,0,0,0,1,64,8730832,3.2142040729522705,1.5053462982177734,0.8958447575569153,1.2522138357162476,-1.697293996810913,0.001502335537225008,0.00465837586671114,26.42,0.08,0.0,0.89,0.04,0.0,0.08,0.1
11.879463599994779,0,0,0,0,1,64,8730863,3.2097225189208984,1.5007444620132446,0.8587735295295715,0.8587340116500854,-1.5689619779586792,0.012574005872011185,-0.006099047139286995,26.400000000000002,0.0,0.0,0.89,0.07,0.01,0.12,0.37
11.910410699987551,0,0,0,0,1,64,8730894,3.198819398880005,1.4894952774047852,0.8344857096672058,0.5235493779182434,-1.353217601776123,-0.0021864830050617456,-0.0013808070216327906,26.42,0.01,0.0,0.92,0.09,0.09,0.08,0.51
11.941768399992725,0,0,0,0,1,64,8730925,3.1847822666168213,1.4710874557495117,0.8178675770759583,0.21766789257526398,-1.1258463859558105,0.0007593345362693071,0.006175132468342781,26.42,0.0,0.0,0.9,0.02,0.15,0.06,0.46
11.973109300015494,0,0,0,0,1,64,8730956,3.1758553981781006,1.4526796340942383,0.7986927032470703,-0.014195330440998077,-0.9734288454055786,-0.0009626245591789484,-0.0008148578926920891,26.42,0.12,0.0,0.89,0.0,0.19,0.0,0.19
12.004970900015905,0,0,0,0,1,64,8730988,3.1749773025512695,1.4386181831359863,0.7708253860473633,-0.1380743384361267,-0.9324964880943298,-2.401979872956872e-05,0.0020224223844707012,26.42,0.06,0.0,0.96,0.0,0.17,0.0,0.04
12.029555099987192,0,0,0,0,1,64,8731013,3.178255081176758,1.4283918142318726,0.7457704544067383,-0.19661067426204681,-0.945710301399231,-0.00032083288533613086,0.0015762706752866507,26.42,0.0,0.0,0.99,0.0,0.16,0.0,0.0
12.066890499991132,0,0,0,0,1,64,8731050,3.1872928142547607,1.4076828956604004,0.7120227813720703,-0.3049197494983673,-0.9474709033966064,-0.004610242322087288,-0.0014760930789634585,26.400000000000002,0.09,0.0,1.1500000000000001,0.01,0.1,0.0,0.0
12.097672400006559,0,0,0,0,1,64,8731081,3.1950247287750244,1.3813495635986328,0.6959161758422852,-0.4438071846961975,-0.8412131071090698,-0.004497553687542677,0.00911766942590475,26.42,0.03,0.12,1.1,0.0,0.0,0.0,0.0
12.13039679999929,0,0,0,0,1,64,8731114,3.208815574645996,1.3504142761230469,0.6984726786613464,-0.5927307605743408,-0.5832436084747314,-0.0001966108102351427,0.008499575778841972,26.42,0.0,0.17,1.0,0.0,0.0,0.0,0.0
12.154366800008575,0,0,0,0,1,64,8731138,3.2242703437805176,1.330216884613037,0.7099774479866028,-0.6485351324081421,-0.359579473733902,0.003101854817941785,0.0020135913509875536,26.42,0.12,0.25,1.26,0.0,0.0,0.0,0.0
12.192176600015955,0,0,0,0,1,64,8731176,3.248047113418579,1.291356086730957,0.7687800526618958,-0.7586596608161926,0.22574932873249054,0.0035672993399202824,-0.005845488514751196,26.400000000000002,0.0,0.13,0.97,0.03,0.0,0.1,0.0
12.222971600014716,0,0,0,0,1,64,8731206,3.2593915462493896,1.2524951696395874,0.854938805103302,-0.9008690118789673,0.9112030863761902,0.0024173620622605085,-0.010471565648913383,26.42,0.03,0.07,1.1500000000000001,0.12,0.0,0.05,0.0
12.254199899995001,0,0,0,0,1,64,8731238,3.2589197158813477,1.2172136306762695,0.96794193983078,-0.9738984107971191,1.654661774635315,-0.004243171773850918,-0.005692629609256983,26.400000000000002,0.04,0.19,1.19,0.0,0.01,0.0,0.1
12.279401400010101,0,0,0,0,1,64,8731263,3.252741813659668,1.1990615129470825,1.0571686029434204,-0.9250553846359253,2.115727424621582,0.0049455659464001656,-0.007407576311379671,26.400000000000002,0.06,0.17,1.07,0.0,0.09,0.05,0.19
12.316023599996697,0,0,0,0,1,64,8731299,3.2414844036102295,1.1821876764297485,1.1742624044418335,-0.7813305258750916,2.4797585010528564,0.0060689751990139484,-0.0005015165661461651,26.400000000000002,0.0,0.15,0.96,0.0,0.18,0.24,0.2
12.336386000009952,0,0,0,0,1,64,8731320,3.2357561588287354,1.169915795326233,1.2394565343856812,-0.7311856150627136,2.5992543697357178,0.004433793015778065,-0.005231556482613087,26.42,0.08,0.11,1.0,0.0,0.28,0.27,0.19
12.36168249999173,0,0,0,0,1,64,8731345,3.229503631591797,1.1474175453186035,1.313087821006775,-0.7532748579978943,2.6818995475769043,0.002770078368484974,-0.005246877670288086,26.42,0.08,0.12,0.96,0.0,0.3,0.25,0.12
12.392815800005337,0,0,0,0,1,64,8731376,3.224027395248413,1.108301043510437,1.391065001487732,-0.8863898515701294,2.6469600200653076,0.0031969391275197268,-0.0033391043543815613,26.400000000000002,0.09,0.15,0.85,0.0,0.2,0.17,0.05
12.424761600006605,0,0,0,0,1,64,8731408,3.2219252586364746,1.0597249269485474,1.4557479619979858,-1.0636365413665771,2.4738733768463135,0.0025431192480027676,-0.00330298556946218,26.400000000000002,0.0,0.08,0.9,0.0,0.1,0.16,0.0
12.449858400010271,0,0,0,0,1,64,8731433,3.221064805984497,1.0206084251403809,1.4933303594589233,-1.181862711906433,2.2573771476745605,-0.0007492333534173667,0.0010224634315818548,26.42,0.16,0.03,0.92,0.0,0.05,0.17,0.0
12.488473500008695,0,0,0,0,1,64,8731472,3.2196953296661377,0.9635953903198242,1.5257996320724487,-1.2803702354431152,1.7925070524215698,-0.0016603197436779737,-0.00672628078609705,26.42,0.14,0.0,0.93,0.0,0.1,0.21,0.05
12.519431799999438,0,0,0,0,1,64,8731503,3.2164437770843506,0.9214110374450684,1.5327024459838867,-1.3021968603134155,1.3610337972640991,3.326043952256441e-05,-0.02723170816898346,26.42,0.01,0.0,0.96,0.0,0.12,0.21,0.18
12.550304500007769,0,0,0,0,1,64,8731534,3.209587335586548,0.8817831873893738,1.532191276550293,-1.2951922416687012,0.9745064973831177,-0.005456108599901199,-0.03752198442816734,26.42,0.09,0.0,0.9500000000000001,0.0,0.05,0.17,0.4
12.582544000004418,0,0,0,0,1,64,8731566,3.195221185684204,0.8472685813903809,1.5296344757080078,-1.2408372163772583,0.6766029596328735,-0.00619889423251152,-0.03484606742858887,26.42,0.14,0.0,0.91,0.0,0.0,0.13,0.56
12.608263900008751,0,0,0,0,1,64,8731592,3.181302070617676,0.8250258564949036,1.5186409950256348,-1.151179313659668,0.42597344517707825,-0.012402208521962166,-0.016378063708543777,26.400000000000002,0.14,0.0,0.89,0.0,0.0,0.13,0.56
12.646971600013785,0,0,0,0,1,64,8731630,3.163789749145508,0.7930679321289062,1.4951200485229492,-1.0390061140060425,0.08092322945594788,-0.002535459352657199,-0.012478257529437542,26.44,0.12,0.08,0.8200000000000001,0.0,0.0,0.06,0.34
12.67785300000105,0,0,0,0,1,64,8731661,3.1577775478363037,0.7600873112678528,1.48463773727417,-1.0376309156417847,-0.05022614076733589,-0.005016859155148268,0.007207769434899092,26.400000000000002,0.06,0.0,0.92,0.0,0.0,0.08,0.09
12.707609100005357,0,0,0,0,1,64,8731691,3.1584620475769043,0.7199481129646301,1.4828481674194336,-1.1122595071792603,-0.05433172360062599,-0.0007429380784742534,0.013939662836492062,26.42,0.0,0.0,0.9400000000000001,0.0,0.0,0.14,0.0
12.738647999998648,0,0,0,0,1,64,8731722,3.1655614376068115,0.6782751083374023,1.4823368787765503,-1.1813499927520752,-0.041090793907642365,-0.004540878348052502,0.011227855458855629,26.42,0.04,0.0,1.07,0.0,0.02,0.24,0.0
12.769674600014696,0,0,0,0,1,64,8731753,3.172715187072754,0.6473398208618164,1.4800357818603516,-1.1437321901321411,-0.043095991015434265,-0.004988325294107199,-0.0031679142266511917,26.42,0.01,0.07,1.16,0.0,0.05,0.28,0.0
12.800891499995487,0,0,0,0,1,64,8731784,3.177525043487549,0.6307217478752136,1.467508316040039,-0.9883836507797241,-0.12853103876113892,0.0007243943400681019,0.004451456479728222,26.42,0.01,0.02,1.17,0.03,0.12,0.28,0.0
12.83156739998958,0,0,0,0,1,64,8731815,3.18363881111145,0.6294434666633606,1.4444986581802368,-0.7316088080406189,-0.2921636998653412,-0.012994762510061264,-0.0031277635134756565,26.400000000000002,0.0,0.15,0.9,0.08,0.13,0.22,0.0
12.862790200015297,0,0,0,0,1,64,8731846,3.2014410495758057,0.6304661631584167,1.418932318687439,-0.5161632895469666,-0.4406156539916992,-0.011711789295077324,0.009261024184525013,26.42,0.19,0.14,0.97,0.19,0.33,0.0,0.0
12.894815400009975,0,0,0,0,1,64,8731878,3.2282824516296387,0.652197539806366,1.3856960535049438,-0.20930233597755432,-0.5972059369087219,0.0010553241008892655,0.0024086562916636467,26.42,0.04,0.05,0.9500000000000001,0.07,0.37,0.0,0.0
12.91960019999533,0,0,0,0,1,64,8731903,3.245190382003784,0.7002620697021484,1.3442786931991577,0.24590113759040833,-0.8189186453819275,0.0041879769414663315,0.006093827076256275,26.42,0.0,0.18,1.0,0.0,0.31,0.0,0.0
12.956171500001801,0,0,0,0,1,64,8731940,3.2594964504241943,0.8071293830871582,1.267579436302185,1.0834580659866333,-1.2217105627059937,0.008299821987748146,0.004511114209890366,26.42,0.12,0.17,1.19,0.0,0.32,0.0,0.0
12.981544300011592,0,0,0,0,1,64,8731965,3.2634599208831787,0.8843398094177246,1.2243725061416626,1.5574053525924683,-1.3575764894485474,0.002251031342893839,0.000982864061370492,26.44,0.0,0.08,1.18,0.0,0.15,0.01,0.0
13.020412000012584,0,0,0,0,1,64,8732004,3.2663776874542236,0.9965760111808777,1.1816765069961548,2.0130667686462402,-1.2834200859069824,0.0038893905002623796,0.0032153045758605003,26.400000000000002,0.01,0.01,1.07,0.0,0.0,0.04,0.0
13.05214449999039,0,0,0,0,1,64,8732036,3.2655608654022217,1.087080955505371,1.1527866125106812,2.235743761062622,-1.1645100116729736,0.0013698649127036333,0.008387552574276924,26.400000000000002,0.03,0.1,1.04,0.04,0.0,0.0,0.0
13.078186800004914,0,0,0,0,1,64,8732062,3.262906551361084,1.159945011138916,1.1213401556015015,2.3612329959869385,-1.15938138961792,0.006957883946597576,0.007720596622675657,26.44,0.04,0.1,1.05,0.0,0.0,0.0,0.04
13.112056000012672,0,0,0,0,1,64,8732095,3.2601401805877686,1.2438026666641235,1.0712299346923828,2.4232747554779053,-1.25352144241333,0.004896179307252169,0.00642054108902812,26.400000000000002,0.0,0.02,0.89,0.0,0.0,0.0,0.0
13.135755499999505,0,0,0,0,1,64,8732119,3.2601125240325928,1.295702338218689,1.0316022634506226,2.3712241649627686,-1.340421438217163,0.0024416157975792885,-0.0029940493404865265,26.42,0.06,0.07,0.8,0.0,0.0,0.0,0.0
13.174471500009531,0,0,0,0,1,64,8732158,3.2630250453948975,1.361152172088623,0.9669192433357239,2.1469242572784424,-1.4488887786865234,0.0007960011716932058,0.003448855597525835,26.42,0.0,0.0,0.88,0.0,0.0,0.0,0.0
13.206655099987984,0,0,0,0,1,64,8732190,3.2638649940490723,1.4041036367416382,0.9152752757072449,1.9155930280685425,-1.4958808422088623,0.0040464322082698345,0.003518076613545418,26.42,0.09,0.03,0.92,0.0,0.0,0.0,0.0
13.231690699991304,0,0,0,0,1,64,8732215,3.2628278732299805,1.4301813840866089,0.8807608485221863,1.7220040559768677,-1.4785951375961304,0.004253650549799204,0.0019774038810282946,26.42,0.01,0.0,0.9,0.0,0.0,0.0,0.11
13.269614499993622,0,0,0,0,1,64,8732253,3.255993366241455,1.454980731010437,0.8426669239997864,1.377230167388916,-1.3293167352676392,0.0021534645929932594,0.006064475513994694,26.400000000000002,0.04,0.0,0.92,0.03,0.0,0.0,0.29
13.301574400014943,0,0,0,0,1,64,8732285,3.246095657348633,1.4585599899291992,0.8222138285636902,1.027226209640503,-1.1380258798599243,-0.0038971402682363987,-8.195772534236312e-05,26.42,0.0,0.0,0.97,0.15,0.12,0.0,0.44
13.327122999995481,0,0,0,0,1,64,8732311,3.2339792251586914,1.454980731010437,0.8124987483024597,0.7462905645370483,-0.958590567111969,-0.007481358014047146,-0.00531529588624835,26.42,0.0,0.0,0.96,0.21,0.28,0.0,0.6900000000000001
13.365313499991316,0,0,0,0,1,64,8732349,3.2115721702575684,1.4375954866409302,0.8066183924674988,0.35903099179267883,-0.6950893998146057,-0.001288240309804678,-0.013620533980429173,26.42,0.01,0.0,0.92,0.0,0.36,0.0,0.64
13.396778900001664,0,0,0,0,1,64,8732380,3.19685435295105,1.4207216501235962,0.7994597554206848,0.09911985695362091,-0.5567906498908997,0.0017092095222324133,0.0018313899636268616,26.42,0.0,0.05,1.1,0.0,0.09,0.0,0.42
13.428395199996885,0,0,0,0,1,64,8732412,3.1870336532592773,1.4140745401382446,0.7774727940559387,0.00015004270244389772,-0.5790191888809204,0.012628814205527306,0.0062451474368572235,26.42,0.04,0.0,0.97,0.0,0.0,0.0,0.2
13.453632299992023,0,0,0,0,1,64,8732437,3.1869115829467773,1.4138188362121582,0.754974365234375,-0.002273677149787545,-0.6516944766044617,-0.007187300361692905,0.005915304645895958,26.42,0.19,0.0,1.05,0.1,0.0,0.0,0.0
13.492484899994452,0,0,0,0,1,64,8732476,3.197936534881592,1.413307547569275,0.7242946624755859,-0.003732815384864807,-0.7082530856132507,-0.013955394737422466,0.003208570647984743,26.42,0.0,0.0,1.16,0.09,0.01,0.0,0.0
13.52362729999004,0,0,0,0,1,64,8732507,3.2016024589538574,1.4125404357910156,0.7117671966552734,-0.004929224494844675,-0.6356182098388672,-0.01480042189359665,-0.004131135530769825,26.400000000000002,0.06,0.0,1.23,0.01,0.01,0.0,0.2
13.55442739999853,0,0,0,0,1,64,8732538,3.1981990337371826,1.3984791040420532,0.7133010029792786,-0.10652482509613037,-0.450721800327301,-0.00839309673756361,-0.030321408063173294,26.42,0.12,0.1,0.84,0.0,0.03,0.0,0.0
13.585714599990752,0,0,0,0,1,64,8732569,3.206834077835083,1.3667768239974976,0.7222493290901184,-0.3474297523498535,-0.254830926656723,-0.0015885024331510067,-0.00840924121439457,26.44,0.0,0.14,0.79,0.0,0.09,0.0,0.0
13.616336300008697,0,0,0,0,1,64,8732600,3.2231948375701904,1.3271489143371582,0.7465375065803528,-0.6031993627548218,0.018202275037765503,-0.0018717542989179492,0.0006529788952320814,26.42,0.0,0.37,0.98,0.0,0.0,0.0,0.0
13.647413200000301,0,0,0,0,1,64,8732631,3.240913152694702,1.2826634645462036,0.7948579788208008,-0.83255535364151,0.41967788338661194,0.0018872979562729597,-0.0038736462593078613,26.44,0.12,0.21,1.1400000000000001,0.0,0.0,0.0,0.0
13.678630800015526,0,0,0,0,1,64,8732662,3.2562830448150635,1.239456295967102,0.8748804926872253,-0.9954676032066345,0.9881049394607544,-0.006257961038500071,-0.0025993739254772663,26.400000000000002,0.0,0.09,1.24,0.0,0.0,0.0,0.0
13.709878199995728,0,0,0,0,1,64,8732693,3.2588796615600586,1.2069870233535767,0.9791911244392395,-1.0239566564559937,1.6316756010055542,0.00040528568206354976,-0.0008683630730956793,26.400000000000002,0.09,0.13,1.19,0.03,0.0,0.0,0.05
13.740816400008043,0,0,0,0,1,64,8732724,3.25124192237854,1.1847443580627441,1.091683030128479,-0.9427855610847473,2.1955583095550537,-0.011994501575827599,-0.006134059280157089,26.42,0.0,0.12,1.07,0.0,0.07,0.12,0.22
13.772072199994,0,0,0,0,1,64,8732755,3.240579843521118,1.1645469665527344,1.1957381963729858,-0.852437436580658,2.529440402984619,-0.005300137214362621,0.0024014420341700315,26.42,0.08,0.19,0.93,0.0,0.24,0.29,0.18
13.80401819999679,0,0,0,0,1,64,8732787,3.232219934463501,1.135912537574768,1.292890191078186,-0.8518060445785522,2.683474063873291,-0.002547099255025387,0.0033104331232607365,26.400000000000002,0.14,0.14,0.86,0.0,0.35000000000000003,0.36,0.1
13.827800200000638,0,0,0,0,1,64,8732811,3.229240894317627,1.1072783470153809,1.353226661682129,-0.9180920124053955,2.6586995124816895,-0.003326691221445799,0.00020369066623970866,26.42,0.04,0.08,0.85,0.0,0.36,0.36,0.03
13.865608399995835,0,0,0,0,1,64,8732849,3.2270584106445312,1.0528221130371094,1.429669976234436,-1.0836660861968994,2.448230504989624,0.0008103066356852651,-0.0048593925312161446,26.400000000000002,0.01,0.09,0.8300000000000001,0.0,0.25,0.34,0.0
13.896123899990926,0,0,0,0,1,64,8732879,3.226857900619507,1.0057798624038696,1.47492253780365,-1.2122231721878052,2.200225591659546,-0.005766190588474274,0.0005193338147364557,26.400000000000002,0.0,0.09,0.85,0.0,0.18,0.3,0.0
13.926869299990358,0,0,0,0,1,64,8732910,3.226994752883911,0.9592491984367371,1.5068804025650024,-1.2935909032821655,1.8856635093688965,-0.00017739325994625688,-0.005375148728489876,26.400000000000002,0.0,0.0,0.9400000000000001,0.0,0.1,0.22,0.01
13.958218299987493,0,0,0,0,1,64,8732942,3.2256782054901123,0.9180873036384583,1.522220253944397,-1.2995401620864868,1.495867371559143,0.006727217696607113,0.001969164703041315,26.400000000000002,0.01,0.0,0.98,0.0,0.0,0.16,0.1
13.98293269998976,0,0,0,0,1,64,8732966,3.222503185272217,0.8922653198242188,1.52349853515625,-1.2524853944778442,1.177808165550232,0.005392216145992279,-0.026120036840438843,26.42,0.01,0.0,1.0,0.0,0.0,0.12,0.24
14.0209276000096,0,0,0,0,1,64,8733004,3.2102372646331787,0.8590291142463684,1.5224758386611938,-1.1308019161224365,0.7782106995582581,0.003930830862373114,-0.04069661721587181,26.42,0.12,0.0,0.97,0.0,0.0,0.14,0.54
14.052035100001376,0,0,0,0,1,64,8733035,3.195413112640381,0.8393430709838867,1.5132721662521362,-0.9974463582038879,0.48891526460647583,-0.007463420741260052,-0.016193730756640434,26.42,0.0,0.0,0.9500000000000001,0.0,0.0,0.16,0.56
14.083063900005072,0,0,0,0,1,64,8733066,3.180117607116699,0.819657027721405,1.4948643445968628,-0.8882946968078613,0.1919945478439331,0.002945311600342393,-0.0018438457045704126,26.42,0.11,0.04,0.88,0.0,0.0,0.18,0.47000000000000003
14.114721999998437,0,0,0,0,1,64,8733098,3.1692216396331787,0.7892330288887024,1.477223515510559,-0.8892390727996826,-0.028626855462789536,0.007127171382308006,0.001489422284066677,26.42,0.09,0.11,0.79,0.03,0.0,0.22,0.2
14.138879500009352,0,0,0,0,1,64,8733122,3.1672275066375732,0.7565080523490906,1.4710875749588013,-0.981006920337677,-0.08671936392784119,0.004770154133439064,-0.013607872650027275,26.42,0.16,0.07,0.85,0.04,0.0,0.29,0.0
14.177011099993251,0,0,0,0,1,64,8733160,3.177306890487671,0.6936149597167969,1.4721102714538574,-1.1996333599090576,-0.04805251955986023,0.00235196016728878,-0.029597626999020576,26.42,0.0,0.0,1.07,0.0,0.02,0.43,0.0
14.208077999996021,0,0,0,0,1,64,8733191,3.192481756210327,0.6442718505859375,1.4708318710327148,-1.3176519870758057,-0.041533567011356354,-0.0009573243441991508,-0.03573671355843544,26.42,0.12,0.0,1.25,0.0,0.12,0.5,0.0
14.239281499991193,0,0,0,0,1,64,8733223,3.199951410293579,0.6089903712272644,1.4652074575424194,-1.2772494554519653,-0.06606043875217438,-0.0025915990117937326,-0.01872113160789013,26.42,0.06,0.0,1.23,0.08,0.31,0.43,0.0
14.26396310000564,0,0,0,0,1,64,8733247,3.20458984375,0.5987637639045715,1.4485893249511719,-1.108629584312439,-0.1871652603149414,-0.0013031738344579935,-0.0020123226568102837,26.42,0.0,0.07,1.09,0.0,0.17,0.36,0.0
14.303227399999741,0,0,0,0,1,64,8733287,3.2231576442718506,0.6025988459587097,1.4092168807983398,-0.6957480311393738,-0.4601840376853943,-0.0031065559014678,-0.0072659682482481,26.42,0.12,0.12,0.96,0.14,0.16,0.14,0.0
14.335172399994917,0,0,0,0,1,64,8733318,3.248380422592163,0.6199838519096375,1.3759807348251343,-0.36798426508903503,-0.6228675246238708,-0.004683109000325203,-0.00621630996465683,26.42,0.0,0.06,0.97,0.1,0.37,0.0,0.0
14.366567299992312,0,0,0,0,1,64,8733350,3.271418571472168,0.6767411231994629,1.3256152868270874,0.20614059269428253,-0.8758599162101746,-0.007606572471559048,-0.0009830582421272993,26.400000000000002,0.0,0.16,0.9400000000000001,0.0,0.33,0.0,0.0
14.391156800003955,0,0,0,0,1,64,8733375,3.283613443374634,0.7450032234191895,1.276527762413025,0.7671238780021667,-1.1207693815231323,-0.0031786353792995214,-0.0021072886884212494,26.42,0.0,0.14,1.1400000000000001,0.0,0.33,0.0,0.0
14.42821849999018,0,0,0,0,1,64,8733412,3.291419744491577,0.857495129108429,1.2151683568954468,1.5084726810455322,-1.3136361837387085,-0.0024389978498220444,0.002444202546030283,26.42,0.11,0.12,1.21,0.0,0.3,0.0,0.0
14.459594299987657,0,0,0,0,1,64,8733443,3.2931432723999023,0.9531132578849792,1.1816765069961548,1.9474188089370728,-1.2594079971313477,0.002591115888208151,0.003451849799603224,26.44,0.01,0.1,1.12,0.03,0.11,0.0,0.0
14.490826900000684,0,0,0,0,1,64,8733474,3.291213274002075,1.049242615699768,1.1553430557250977,2.268198251724243,-1.1404873132705688,0.0018293072935193777,0.00456529064103961,26.42,0.08,0.08,1.1,0.02,0.0,0.0,0.06
14.52191280000261,0,0,0,0,1,64,8733505,3.2861216068267822,1.1438382863998413,1.1244077682495117,2.487673282623291,-1.090108871459961,0.004149104002863169,0.0018022622680291533,26.42,0.0,0.07,1.04,0.0,0.0,0.0,0.11
14.552884300006554,0,0,0,0,1,64,8733536,3.2809853553771973,1.2271846532821655,1.0886150598526,2.5497820377349854,-1.1036083698272705,0.0011223714100196958,0.0006595983868464828,26.44,0.0,0.04,0.9,0.0,0.0,0.0,0.05
14.585164599993732,0,0,0,0,1,64,8733569,3.2789876461029053,1.2967249155044556,1.0474532842636108,2.429966688156128,-1.1382988691329956,0.0003000407014042139,-0.0026424669194966555,26.42,0.0,0.0,0.86,0.0,0.0,0.0,0.03
14.609105200011982,0,0,0,0,1,64,8733592,3.2780613899230957,1.3358415365219116,1.016517996788025,2.274217128753662,-1.178619146347046,0.005362589843571186,0.003349181730300188,26.400000000000002,0.14,0.0,0.93,0.0,0.0,0.0,0.0
14.646505699987756,0,0,0,0,1,64,8733630,3.2757880687713623,1.3877410888671875,0.9612948298454285,1.9748046398162842,-1.269598364830017,0.0009977670852094889,-0.0010524803074076772,26.42,0.0,0.0,0.91,0.0,0.0,0.0,0.11
14.677379200002179,0,0,0,0,1,64,8733661,3.270807981491089,1.4194434881210327,0.9165534973144531,1.715375542640686,-1.3205749988555908,0.006425729487091303,-0.0006436433177441359,26.42,0.0,0.0,0.9400000000000001,0.0,0.0,0.0,0.2
14.709414899989497,0,0,0,0,1,64,8733693,3.2636353969573975,1.4396408796310425,0.8774372935295105,1.4149272441864014,-1.299726963043213,0.004460157360881567,0.0012576245935633779,26.39,0.0,0.0,0.96,0.0,0.0,0.0,0.33
14.734153700002935,0,0,0,0,1,64,8733717,3.256082534790039,1.4460325241088867,0.8531491160392761,1.1674846410751343,-1.2369657754898071,-0.0023058135993778706,0.00402555987238884,26.42,0.0,0.0,0.93,0.01,0.03,0.0,0.43
14.771405300009064,0,0,0,0,1,64,8733755,3.2407443523406982,1.4447541236877441,0.8199129104614258,0.7728574872016907,-1.1168437004089355,-0.0034831673838198185,0.010114953853189945,26.42,0.01,0.0,0.92,0.06,0.07,0.0,0.55
14.803392300003907,0,0,0,0,1,64,8733787,3.224395275115967,1.4416861534118652,0.796136200428009,0.5252195000648499,-1.0133157968521118,0.008106719702482224,0.008611534722149372,26.44,0.08,0.0,0.9,0.04,0.12,0.0,0.55
14.828942499996629,0,0,0,0,1,64,8733812,3.2128353118896484,1.4345275163650513,0.7820746302604675,0.3422163426876068,-0.9131925106048584,0.006234334781765938,0.0073506333865225315,26.400000000000002,0.12,0.0,0.88,0.02,0.11,0.0,0.44
14.86547900000005,0,0,0,0,1,64,8733849,3.2025766372680664,1.4225114583969116,0.7639226913452148,0.12349674850702286,-0.7718368172645569,0.003426381153985858,0.006211419589817524,26.400000000000002,0.0,0.0,0.92,0.0,0.05,0.0,0.21
14.896360599988839,0,0,0,0,1,64,8733880,3.200937032699585,1.4194434881210327,0.7457704544067383,0.054705213755369186,-0.7155914902687073,-0.0006962263723835349,0.00412375945597887,26.44,0.08,0.0,1.03,0.0,0.0,0.0,0.11
14.927651800011517,0,0,0,0,1,64,8733911,3.203152656555176,1.4194434881210327,0.7230164408683777,0.042100176215171814,-0.7173791527748108,-0.005249174311757088,0.014805766753852367,26.42,0.09,0.0,1.08,0.04,0.04,0.0,0.08
14.959645800001454,0,0,0,0,1,64,8733943,3.204977512359619,1.4191879034042358,0.6997509002685547,0.031170831993222237,-0.7235184907913208,-0.005073572974652052,0.009885494597256184,26.44,0.11,0.0,1.19,0.0,0.05,0.0,0.1
14.984782499988796,0,0,0,0,1,64,8733968,3.2032992839813232,1.413051962852478,0.6877349019050598,-0.016995979472994804,-0.6791320443153381,-0.0010293434606865048,-0.0008657712023705244,26.44,0.12,0.06,1.19,0.0,0.0,0.0,0.05
